ExperimentName	Subject	Session	Block	GunKey	mapping	Procedure[Block]	ResponseMapping	ResponseMapping.Cycle	ResponseMapping.Sample	Running[Block]	ToolKey	Trial	DoIntro	DoIntro.Cycle	DoIntro.Sample	Procedure[Trial]	Running[Trial]	SubTrial	BlockProcList	BlockProcList.Cycle	BlockProcList.Sample	Condition	Procedure[SubTrial]	Running[SubTrial]	LogLevel5	BlackFace	BlackGunList	BlackPrime	BlackTarget	ChunkList1	ChunkList1.Cycle	ChunkList1.Sample	Correct	Cue.DurationError	Cue.OnsetDelay	Cue.OnsetTime	CueType	feedbackmask	feedduration	FeedMask.ACC	FeedMask.CRESP	FeedMask.DurationError	FeedMask.OnsetDelay	FeedMask.OnsetTime	FeedMask.RESP	FeedMask.RT	FeedMask.RTTime	GunPic	GunTarget	Mask.DurationError	Mask.OnsetDelay	Mask.OnsetTime	Probe.ACC	Probe.CRESP	Probe.DurationError	Probe.OnsetDelay	Probe.OnsetTime	Probe.RESP	Probe.RT	Probe.RTTime	ProbeType	Procedure[LogLevel5]	Response.DurationError	Response.OnsetDelay	Response.OnsetTime	Running[LogLevel5]	TrialType	WhiteFace	WhitePrime
Scherer_2015_WIP	1	1	1	j	RightGun	SubsessionProc	1	2	1	ResponseMapping	f	1	1	1	1	IntroProc	DoIntro																																																				
Scherer_2015_WIP	1	1	1	j	RightGun	SubsessionProc	1	2	1	ResponseMapping	f	2	2	1	2	RunProc	DoIntro	1	1	2	1	BlackGun	BlackGunProc	BlockProcList	1	9	3	BlackFace3.bmp	BlackFace4.bmp	1	1	1	f	0	1	16674	whiteface2.bmp	fast	500	0		0	17	17391		0	0			0	10	15673	1	f	0	0	16874	f	357	17231	BlackFace4.bmp	TrialProc	0	0	17074	ChunkList1	WhiteBlack	2	whiteface2.bmp
Scherer_2015_WIP	1	1	1	j	RightGun	SubsessionProc	1	2	1	ResponseMapping	f	2	2	1	2	RunProc	DoIntro	1	1	2	1	BlackGun	BlackGunProc	BlockProcList	2	10	2	BlackFace4.bmp	BlackFace1.bmp	1	1	2	j	0	1	18892	BlackFace4.bmp	fast	500	0		0	1	19594		0	0	4	WEAPON4.bmp	0	0	17891	1	j	0	1	19093	j	386	19479	WEAPON4.bmp	TrialProc	0	0	19293	ChunkList1	BlackGun		
Scherer_2015_WIP	1	1	1	j	RightGun	SubsessionProc	1	2	1	ResponseMapping	f	2	2	1	2	RunProc	DoIntro	1	1	2	1	BlackGun	BlackGunProc	BlockProcList	3		4			1	1	3	j	0	1	21094	whiteface1.bmp	fast	500	0		0	1	21796		0	0	1	WEAPON1.bmp	0	-1	20093	1	j	0	1	21295	j	448	21743	WEAPON1.bmp	TrialProc	0	0	21495	ChunkList1	WhiteGun	1	whiteface1.bmp
Scherer_2015_WIP	1	1	1	j	RightGun	SubsessionProc	1	2	1	ResponseMapping	f	2	2	1	2	RunProc	DoIntro	1	1	2	1	BlackGun	BlackGunProc	BlockProcList	4	6	3	BlackFace2.bmp	BlackFace4.bmp	1	1	4	f	0	0	23296	whiteface3.bmp	fast	500	0		0	1	23998		0	0			0	0	22296	1	f	0	1	23497	f	406	23903	BlackFace4.bmp	TrialProc	0	0	23697	ChunkList1	WhiteBlack	3	whiteface3.bmp
Scherer_2015_WIP	1	1	1	j	RightGun	SubsessionProc	1	2	1	ResponseMapping	f	2	2	1	2	RunProc	DoIntro	1	1	2	1	BlackGun	BlackGunProc	BlockProcList	5	4	1	BlackFace2.bmp	BlackFace1.bmp	1	1	5	f	0	1	25499	BlackFace2.bmp	fast	500	0		0	1	26200		0	0			0	0	24498	1	f	0	0	25699	f	380	26079	BlackFace1.bmp	TrialProc	0	0	25899	ChunkList1	BlackBlack		
Scherer_2015_WIP	1	1	1	j	RightGun	SubsessionProc	1	2	1	ResponseMapping	f	2	2	1	2	RunProc	DoIntro	1	1	2	1	BlackGun	BlackGunProc	BlockProcList	6	12	1	BlackFace4.bmp	BlackFace3.bmp	1	1	6	f	0	1	27701	BlackFace4.bmp	fast	500	0		0	1	28402		0	0			0	0	26700	1	f	0	0	27901	f	378	28279	BlackFace3.bmp	TrialProc	0	0	28101	ChunkList1	BlackBlack		
Scherer_2015_WIP	1	1	1	j	RightGun	SubsessionProc	1	2	1	ResponseMapping	f	2	2	1	2	RunProc	DoIntro	1	1	2	1	BlackGun	BlackGunProc	BlockProcList	7	1	2	BlackFace1.bmp	BlackFace2.bmp	1	1	7	j	0	1	29903	BlackFace1.bmp	fast	500	0		0	1	30604		0	0	3	WEAPON3.bmp	0	0	28902	1	j	0	0	30103	j	384	30487	WEAPON3.bmp	TrialProc	0	0	30303	ChunkList1	BlackGun		
Scherer_2015_WIP	1	1	1	j	RightGun	SubsessionProc	1	2	1	ResponseMapping	f	2	2	1	2	RunProc	DoIntro	1	1	2	1	BlackGun	BlackGunProc	BlockProcList	8	11	1	BlackFace4.bmp	BlackFace2.bmp	1	1	8	f	0	1	32105	BlackFace4.bmp	fast	500	0		0	1	32806		0	0			0	0	31104	1	f	0	0	32305	f	398	32703	BlackFace2.bmp	TrialProc	0	0	32505	ChunkList1	BlackBlack		
Scherer_2015_WIP	1	1	1	j	RightGun	SubsessionProc	1	2	1	ResponseMapping	f	2	2	1	2	RunProc	DoIntro	1	1	2	1	BlackGun	BlackGunProc	BlockProcList	9		4			1	1	9	j	0	1	34307	whiteface4.bmp	fast	500	0		0	2	35009		0	0	2	WEAPON2.bmp	0	0	33306	1	j	0	0	34507	j	380	34887	WEAPON2.bmp	TrialProc	0	0	34707	ChunkList1	WhiteGun	4	whiteface4.bmp
Scherer_2015_WIP	1	1	1	j	RightGun	SubsessionProc	1	2	1	ResponseMapping	f	2	2	1	2	RunProc	DoIntro	1	1	2	1	BlackGun	BlackGunProc	BlockProcList	10	5	3	BlackFace2.bmp	BlackFace3.bmp	1	1	10	f	0	1	36509	whiteface1.bmp	fast	500	0		0	1	37210		0	0			0	-1	35508	1	f	0	0	36709	f	418	37127	BlackFace3.bmp	TrialProc	0	0	36909	ChunkList1	WhiteBlack	1	whiteface1.bmp
Scherer_2015_WIP	1	1	1	j	RightGun	SubsessionProc	1	2	1	ResponseMapping	f	2	2	1	2	RunProc	DoIntro	1	1	2	1	BlackGun	BlackGunProc	BlockProcList	11	7	3	BlackFace3.bmp	BlackFace1.bmp	1	1	11	f	0	1	38711	whiteface2.bmp	fast	500	0		0	1	39412		0	0			0	0	37710	1	f	0	0	38911	f	408	39319	BlackFace1.bmp	TrialProc	0	0	39111	ChunkList1	WhiteBlack	2	whiteface2.bmp
Scherer_2015_WIP	1	1	1	j	RightGun	SubsessionProc	1	2	1	ResponseMapping	f	2	2	1	2	RunProc	DoIntro	1	1	2	1	BlackGun	BlackGunProc	BlockProcList	12		4			1	1	12	j	0	1	40913	whiteface4.bmp	fast	500	0		0	1	41614		0	0	4	WEAPON4.bmp	0	0	39912	1	j	0	0	41113	j	398	41511	WEAPON4.bmp	TrialProc	0	0	41313	ChunkList1	WhiteGun	4	whiteface4.bmp
Scherer_2015_WIP	1	1	1	j	RightGun	SubsessionProc	1	2	1	ResponseMapping	f	2	2	1	2	RunProc	DoIntro	1	1	2	1	BlackGun	BlackGunProc	BlockProcList	13		4			1	1	13	j	0	1	43115	whiteface3.bmp	fast	500	0		0	1	43816		0	0	1	WEAPON1.bmp	0	0	42114	1	j	0	0	43315	j	356	43671	WEAPON1.bmp	TrialProc	0	0	43515	ChunkList1	WhiteGun	3	whiteface3.bmp
Scherer_2015_WIP	1	1	1	j	RightGun	SubsessionProc	1	2	1	ResponseMapping	f	2	2	1	2	RunProc	DoIntro	1	1	2	1	BlackGun	BlackGunProc	BlockProcList	14	8	1	BlackFace3.bmp	BlackFace2.bmp	1	1	14	f	0	1	45317	BlackFace3.bmp	fast	500	0		0	1	46018		0	0			0	0	44316	1	f	0	0	45517	f	346	45863	BlackFace2.bmp	TrialProc	0	0	45717	ChunkList1	BlackBlack		
Scherer_2015_WIP	1	1	1	j	RightGun	SubsessionProc	1	2	1	ResponseMapping	f	2	2	1	2	RunProc	DoIntro	1	1	2	1	BlackGun	BlackGunProc	BlockProcList	15		4			1	1	15	j	0	1	47519	whiteface3.bmp	fast	500	0		0	1	48221		0	0	2	WEAPON2.bmp	0	0	46518	1	j	0	0	47719	j	368	48087	WEAPON2.bmp	TrialProc	0	1	47920	ChunkList1	WhiteGun	3	whiteface3.bmp
Scherer_2015_WIP	1	1	1	j	RightGun	SubsessionProc	1	2	1	ResponseMapping	f	2	2	1	2	RunProc	DoIntro	1	1	2	1	BlackGun	BlackGunProc	BlockProcList	16	2	1	BlackFace1.bmp	BlackFace3.bmp	1	1	16	f	0	1	49721	BlackFace1.bmp	fast	500	0		0	1	50423		0	0			0	-1	48720	1	f	0	0	49921	f	374	50295	BlackFace3.bmp	TrialProc	0	1	50122	ChunkList1	BlackBlack		
Scherer_2015_WIP	1	1	1	j	RightGun	SubsessionProc	1	2	1	ResponseMapping	f	2	2	1	2	RunProc	DoIntro	1	1	2	1	BlackGun	BlackGunProc	BlockProcList	17	3	2	BlackFace1.bmp	BlackFace4.bmp	1	1	17	j	0	1	51923	BlackFace1.bmp	fast	500	0		0	1	52625		0	0	3	WEAPON3.bmp	0	-1	50922	1	j	0	1	52124	j	387	52511	WEAPON3.bmp	TrialProc	0	0	52324	ChunkList1	BlackGun		
Scherer_2015_WIP	1	1	1	j	RightGun	SubsessionProc	1	2	1	ResponseMapping	f	2	2	1	2	RunProc	DoIntro	1	1	2	1	BlackGun	BlackGunProc	BlockProcList	18	11	1	BlackFace4.bmp	BlackFace2.bmp	1	1	18	f	0	1	54125	BlackFace4.bmp	fast	500	0		0	1	54827		0	0			0	-1	53124	1	f	0	1	54326	f	377	54703	BlackFace2.bmp	TrialProc	0	0	54526	ChunkList1	BlackBlack		
Scherer_2015_WIP	1	1	1	j	RightGun	SubsessionProc	1	2	1	ResponseMapping	f	2	2	1	2	RunProc	DoIntro	1	1	2	1	BlackGun	BlackGunProc	BlockProcList	19		4			1	1	19	j	0	0	56327	whiteface2.bmp	fast	500	0		0	1	57029		0	0	2	WEAPON2.bmp	0	0	55327	1	j	0	1	56528	j	375	56903	WEAPON2.bmp	TrialProc	0	0	56728	ChunkList1	WhiteGun	2	whiteface2.bmp
Scherer_2015_WIP	1	1	1	j	RightGun	SubsessionProc	1	2	1	ResponseMapping	f	2	2	1	2	RunProc	DoIntro	1	1	2	1	BlackGun	BlackGunProc	BlockProcList	20	3	3	BlackFace1.bmp	BlackFace4.bmp	1	1	20	f	0	1	58530	whiteface4.bmp	fast	500	0		0	1	59231		0	0			0	0	57529	1	f	0	0	58730	f	389	59119	BlackFace4.bmp	TrialProc	0	0	58930	ChunkList1	WhiteBlack	4	whiteface4.bmp
Scherer_2015_WIP	1	1	1	j	RightGun	SubsessionProc	1	2	1	ResponseMapping	f	2	2	1	2	RunProc	DoIntro	1	1	2	1	BlackGun	BlackGunProc	BlockProcList	21	12	1	BlackFace4.bmp	BlackFace3.bmp	1	1	21	f	0	1	60732	BlackFace4.bmp	fast	500	0		0	17	61449		0	0			0	0	59731	1	f	0	0	60932	f	355	61287	BlackFace3.bmp	TrialProc	0	0	61132	ChunkList1	BlackBlack		
Scherer_2015_WIP	1	1	1	j	RightGun	SubsessionProc	1	2	1	ResponseMapping	f	2	2	1	2	RunProc	DoIntro	1	1	2	1	BlackGun	BlackGunProc	BlockProcList	22		4			1	1	22	j	0	1	62950	whiteface1.bmp	fast	500	0		0	1	63652		0	0	3	WEAPON3.bmp	0	0	61949	1	j	0	1	63151	j	376	63527	WEAPON3.bmp	TrialProc	0	0	63351	ChunkList1	WhiteGun	1	whiteface1.bmp
Scherer_2015_WIP	1	1	1	j	RightGun	SubsessionProc	1	2	1	ResponseMapping	f	2	2	1	2	RunProc	DoIntro	1	1	2	1	BlackGun	BlackGunProc	BlockProcList	23	6	1	BlackFace2.bmp	BlackFace4.bmp	1	1	23	f	0	1	65152	BlackFace2.bmp	fast	500	0		0	1	65854		0	0			0	-1	64151	1	f	0	1	65353	f	406	65759	BlackFace4.bmp	TrialProc	0	0	65553	ChunkList1	BlackBlack		
Scherer_2015_WIP	1	1	1	j	RightGun	SubsessionProc	1	2	1	ResponseMapping	f	2	2	1	2	RunProc	DoIntro	1	1	2	1	BlackGun	BlackGunProc	BlockProcList	24	8	3	BlackFace3.bmp	BlackFace2.bmp	1	1	24	f	0	0	67354	whiteface4.bmp	fast	500	0		0	1	68056		0	0			0	0	66354	1	f	0	1	67555	f	372	67927	BlackFace2.bmp	TrialProc	0	0	67755	ChunkList1	WhiteBlack	4	whiteface4.bmp
Scherer_2015_WIP	1	1	1	j	RightGun	SubsessionProc	1	2	1	ResponseMapping	f	2	2	1	2	RunProc	DoIntro	1	1	2	1	BlackGun	BlackGunProc	BlockProcList	25	1	2	BlackFace1.bmp	BlackFace2.bmp	1	1	25	j	0	1	69557	BlackFace1.bmp	fast	500	0		0	1	70258		0	0	4	WEAPON4.bmp	0	0	68556	1	j	0	0	69757	j	346	70103	WEAPON4.bmp	TrialProc	0	0	69957	ChunkList1	BlackGun		
Scherer_2015_WIP	1	1	1	j	RightGun	SubsessionProc	1	2	1	ResponseMapping	f	2	2	1	2	RunProc	DoIntro	1	1	2	1	BlackGun	BlackGunProc	BlockProcList	26	2	1	BlackFace1.bmp	BlackFace3.bmp	1	1	26	f	0	1	71759	BlackFace1.bmp	fast	500	0		0	1	72460		0	0			0	0	70758	1	f	0	0	71959	f	400	72359	BlackFace3.bmp	TrialProc	0	0	72159	ChunkList1	BlackBlack		
Scherer_2015_WIP	1	1	1	j	RightGun	SubsessionProc	1	2	1	ResponseMapping	f	2	2	1	2	RunProc	DoIntro	1	1	2	1	BlackGun	BlackGunProc	BlockProcList	27	9	2	BlackFace3.bmp	BlackFace4.bmp	1	1	27	j	0	1	73961	BlackFace3.bmp	fast	500	0		0	1	74662		0	0	1	WEAPON1.bmp	0	0	72960	1	j	0	0	74161	j	366	74527	WEAPON1.bmp	TrialProc	0	0	74361	ChunkList1	BlackGun		
Scherer_2015_WIP	1	1	1	j	RightGun	SubsessionProc	1	2	1	ResponseMapping	f	2	2	1	2	RunProc	DoIntro	1	1	2	1	BlackGun	BlackGunProc	BlockProcList	28	7	2	BlackFace3.bmp	BlackFace1.bmp	1	1	28	j	0	1	76163	BlackFace3.bmp	fast	500	0		0	1	76864		0	0	4	WEAPON4.bmp	0	0	75162	0	j	0	0	76363	f	308	76671	WEAPON4.bmp	TrialProc	0	0	76563	ChunkList1	BlackGun		
Scherer_2015_WIP	1	1	1	j	RightGun	SubsessionProc	1	2	1	ResponseMapping	f	2	2	1	2	RunProc	DoIntro	1	1	2	1	BlackGun	BlackGunProc	BlockProcList	29	4	1	BlackFace2.bmp	BlackFace1.bmp	1	1	29	f	0	1	78365	BlackFace2.bmp	fast	500	0		0	1	79066		0	0			0	0	77364	1	f	0	0	78565	f	338	78903	BlackFace1.bmp	TrialProc	0	0	78765	ChunkList1	BlackBlack		
Scherer_2015_WIP	1	1	1	j	RightGun	SubsessionProc	1	2	1	ResponseMapping	f	2	2	1	2	RunProc	DoIntro	1	1	2	1	BlackGun	BlackGunProc	BlockProcList	30	5	2	BlackFace2.bmp	BlackFace3.bmp	1	1	30	j	0	1	80567	BlackFace2.bmp	fast	500	0		0	1	81268		0	0	2	WEAPON2.bmp	0	0	79566	1	j	0	0	80767	j	384	81151	WEAPON2.bmp	TrialProc	0	0	80967	ChunkList1	BlackGun		
Scherer_2015_WIP	1	1	1	j	RightGun	SubsessionProc	1	2	1	ResponseMapping	f	2	2	1	2	RunProc	DoIntro	1	1	2	1	BlackGun	BlackGunProc	BlockProcList	31	10	2	BlackFace4.bmp	BlackFace1.bmp	1	1	31	j	0	1	82769	BlackFace4.bmp	fast	500	0		0	1	83470		0	0	3	WEAPON3.bmp	0	0	81768	1	j	0	0	82969	j	438	83407	WEAPON3.bmp	TrialProc	0	0	83169	ChunkList1	BlackGun		
Scherer_2015_WIP	1	1	1	j	RightGun	SubsessionProc	1	2	1	ResponseMapping	f	2	2	1	2	RunProc	DoIntro	1	1	2	1	BlackGun	BlackGunProc	BlockProcList	32		4			1	1	32	j	0	1	84971	whiteface3.bmp	fast	500	0		0	1	85672		0	0	1	WEAPON1.bmp	0	0	83970	1	j	0	0	85171	j	388	85559	WEAPON1.bmp	TrialProc	0	0	85371	ChunkList1	WhiteGun	3	whiteface3.bmp
Scherer_2015_WIP	1	1	1	j	RightGun	SubsessionProc	1	2	1	ResponseMapping	f	2	2	1	2	RunProc	DoIntro	1	1	2	1	BlackGun	BlackGunProc	BlockProcList	33					2	1	33																														BreakTime				ChunkList1			
Scherer_2015_WIP	1	1	1	j	RightGun	SubsessionProc	1	2	1	ResponseMapping	f	2	2	1	2	RunProc	DoIntro	1	1	2	1	BlackGun	BlackGunProc	BlockProcList	34	3	2	BlackFace1.bmp	BlackFace4.bmp	3	1	34	j	0	1	119904	BlackFace1.bmp	fast	500	0		0	1	120605		0	0	4	WEAPON4.bmp	0	8	118903	1	j	0	0	120104	j	375	120479	WEAPON4.bmp	TrialProc	0	0	120304	ChunkList1	BlackGun		
Scherer_2015_WIP	1	1	1	j	RightGun	SubsessionProc	1	2	1	ResponseMapping	f	2	2	1	2	RunProc	DoIntro	1	1	2	1	BlackGun	BlackGunProc	BlockProcList	35		4			3	1	35	j	0	1	122106	whiteface2.bmp	fast	500	0		0	1	122807		0	0	3	WEAPON3.bmp	0	0	121105	1	j	0	0	122306	j	461	122767	WEAPON3.bmp	TrialProc	0	0	122506	ChunkList1	WhiteGun	2	whiteface2.bmp
Scherer_2015_WIP	1	1	1	j	RightGun	SubsessionProc	1	2	1	ResponseMapping	f	2	2	1	2	RunProc	DoIntro	1	1	2	1	BlackGun	BlackGunProc	BlockProcList	36	8	1	BlackFace3.bmp	BlackFace2.bmp	3	1	36	f	0	1	124308	BlackFace3.bmp	fast	500	0		0	1	125009		0	0			0	0	123307	1	f	0	0	124508	f	395	124903	BlackFace2.bmp	TrialProc	0	0	124708	ChunkList1	BlackBlack		
Scherer_2015_WIP	1	1	1	j	RightGun	SubsessionProc	1	2	1	ResponseMapping	f	2	2	1	2	RunProc	DoIntro	1	1	2	1	BlackGun	BlackGunProc	BlockProcList	37		4			3	1	37	j	0	1	126510	whiteface1.bmp	fast	500	0		0	1	127211		0	0	2	WEAPON2.bmp	0	0	125509	1	j	0	0	126710	j	409	127119	WEAPON2.bmp	TrialProc	0	0	126910	ChunkList1	WhiteGun	1	whiteface1.bmp
Scherer_2015_WIP	1	1	1	j	RightGun	SubsessionProc	1	2	1	ResponseMapping	f	2	2	1	2	RunProc	DoIntro	1	1	2	1	BlackGun	BlackGunProc	BlockProcList	38	5	3	BlackFace2.bmp	BlackFace3.bmp	3	1	38	f	0	1	128712	whiteface2.bmp	fast	500	0		0	1	129413		0	0			0	0	127711	1	f	0	0	128912	f	351	129263	BlackFace3.bmp	TrialProc	0	0	129112	ChunkList1	WhiteBlack	2	whiteface2.bmp
Scherer_2015_WIP	1	1	1	j	RightGun	SubsessionProc	1	2	1	ResponseMapping	f	2	2	1	2	RunProc	DoIntro	1	1	2	1	BlackGun	BlackGunProc	BlockProcList	39	12	2	BlackFace4.bmp	BlackFace3.bmp	3	1	39	j	0	1	130914	BlackFace4.bmp	fast	500	0		0	1	131615		0	0	1	WEAPON1.bmp	0	0	129913	1	j	0	0	131114	j	453	131567	WEAPON1.bmp	TrialProc	0	0	131314	ChunkList1	BlackGun		
Scherer_2015_WIP	1	1	1	j	RightGun	SubsessionProc	1	2	1	ResponseMapping	f	2	2	1	2	RunProc	DoIntro	1	1	2	1	BlackGun	BlackGunProc	BlockProcList	40	10	3	BlackFace4.bmp	BlackFace1.bmp	3	1	40	f	0	1	133116	whiteface1.bmp	fast	500	0		0	1	133817		0	0			0	0	132115	1	f	0	0	133316	f	363	133679	BlackFace1.bmp	TrialProc	0	0	133516	ChunkList1	WhiteBlack	1	whiteface1.bmp
Scherer_2015_WIP	1	1	1	j	RightGun	SubsessionProc	1	2	1	ResponseMapping	f	2	2	1	2	RunProc	DoIntro	1	1	2	1	BlackGun	BlackGunProc	BlockProcList	41	7	3	BlackFace3.bmp	BlackFace1.bmp	3	1	41	f	0	1	135318	whiteface4.bmp	fast	500	0		0	1	136020		0	0			0	0	134317	1	f	0	0	135518	f	409	135927	BlackFace1.bmp	TrialProc	0	1	135719	ChunkList1	WhiteBlack	4	whiteface4.bmp
Scherer_2015_WIP	1	1	1	j	RightGun	SubsessionProc	1	2	1	ResponseMapping	f	2	2	1	2	RunProc	DoIntro	1	1	2	1	BlackGun	BlackGunProc	BlockProcList	42		4			3	1	42	j	0	1	137520	whiteface3.bmp	fast	500	0		0	1	138222		0	0	2	WEAPON2.bmp	0	-1	136519	1	j	0	0	137720	j	367	138087	WEAPON2.bmp	TrialProc	0	1	137921	ChunkList1	WhiteGun	3	whiteface3.bmp
Scherer_2015_WIP	1	1	1	j	RightGun	SubsessionProc	1	2	1	ResponseMapping	f	2	2	1	2	RunProc	DoIntro	1	1	2	1	BlackGun	BlackGunProc	BlockProcList	43		4			3	1	43	j	0	1	139722	whiteface3.bmp	fast	500	0		0	1	140424		0	0	3	WEAPON3.bmp	0	-1	138721	1	j	0	1	139923	j	468	140391	WEAPON3.bmp	TrialProc	0	0	140123	ChunkList1	WhiteGun	3	whiteface3.bmp
Scherer_2015_WIP	1	1	1	j	RightGun	SubsessionProc	1	2	1	ResponseMapping	f	2	2	1	2	RunProc	DoIntro	1	1	2	1	BlackGun	BlackGunProc	BlockProcList	44	2	1	BlackFace1.bmp	BlackFace3.bmp	3	1	44	f	0	1	141924	BlackFace1.bmp	fast	500	0		0	1	142626		0	0			0	-1	140923	1	f	0	1	142125	f	362	142487	BlackFace3.bmp	TrialProc	0	0	142325	ChunkList1	BlackBlack		
Scherer_2015_WIP	1	1	1	j	RightGun	SubsessionProc	1	2	1	ResponseMapping	f	2	2	1	2	RunProc	DoIntro	1	1	2	1	BlackGun	BlackGunProc	BlockProcList	45	4	3	BlackFace2.bmp	BlackFace1.bmp	3	1	45	f	0	0	144126	whiteface1.bmp	fast	500	0		0	1	144828		0	0			0	0	143126	1	f	0	1	144327	f	384	144711	BlackFace1.bmp	TrialProc	0	0	144527	ChunkList1	WhiteBlack	1	whiteface1.bmp
Scherer_2015_WIP	1	1	1	j	RightGun	SubsessionProc	1	2	1	ResponseMapping	f	2	2	1	2	RunProc	DoIntro	1	1	2	1	BlackGun	BlackGunProc	BlockProcList	46	6	3	BlackFace2.bmp	BlackFace4.bmp	3	1	46	f	0	1	146329	whiteface4.bmp	fast	500	0		0	1	147030		0	0			0	0	145328	1	f	0	0	146529	f	430	146959	BlackFace4.bmp	TrialProc	0	0	146729	ChunkList1	WhiteBlack	4	whiteface4.bmp
Scherer_2015_WIP	1	1	1	j	RightGun	SubsessionProc	1	2	1	ResponseMapping	f	2	2	1	2	RunProc	DoIntro	1	1	2	1	BlackGun	BlackGunProc	BlockProcList	47	9	3	BlackFace3.bmp	BlackFace4.bmp	3	1	47	f	0	1	148531	whiteface2.bmp	fast	500	0		0	1	149232		0	0			0	0	147530	1	f	0	0	148731	f	396	149127	BlackFace4.bmp	TrialProc	0	0	148931	ChunkList1	WhiteBlack	2	whiteface2.bmp
Scherer_2015_WIP	1	1	1	j	RightGun	SubsessionProc	1	2	1	ResponseMapping	f	2	2	1	2	RunProc	DoIntro	1	1	2	1	BlackGun	BlackGunProc	BlockProcList	48	11	1	BlackFace4.bmp	BlackFace2.bmp	3	1	48	f	0	1	150733	BlackFace4.bmp	fast	500	0		0	1	151434		0	0			0	0	149732	1	f	0	0	150933	f	418	151351	BlackFace2.bmp	TrialProc	0	0	151133	ChunkList1	BlackBlack		
Scherer_2015_WIP	1	1	1	j	RightGun	SubsessionProc	1	2	1	ResponseMapping	f	2	2	1	2	RunProc	DoIntro	1	1	2	1	BlackGun	BlackGunProc	BlockProcList	49	1	2	BlackFace1.bmp	BlackFace2.bmp	3	1	49	j	0	1	152935	BlackFace1.bmp	fast	500	0		0	1	153636		0	0	4	WEAPON4.bmp	0	0	151934	1	j	0	0	153135	j	359	153494	WEAPON4.bmp	TrialProc	0	0	153335	ChunkList1	BlackGun		
Scherer_2015_WIP	1	1	1	j	RightGun	SubsessionProc	1	2	1	ResponseMapping	f	2	2	1	2	RunProc	DoIntro	1	1	2	1	BlackGun	BlackGunProc	BlockProcList	50	3	2	BlackFace1.bmp	BlackFace4.bmp	3	1	50	j	0	1	155137	BlackFace1.bmp	fast	500	0		0	1	155838		0	0	1	WEAPON1.bmp	0	0	154136	0	j	0	0	155337	f	365	155702	WEAPON1.bmp	TrialProc	0	0	155537	ChunkList1	BlackGun		
Scherer_2015_WIP	1	1	1	j	RightGun	SubsessionProc	1	2	1	ResponseMapping	f	2	2	1	2	RunProc	DoIntro	1	1	2	1	BlackGun	BlackGunProc	BlockProcList	51	11	3	BlackFace4.bmp	BlackFace2.bmp	3	1	51	f	0	1	157339	whiteface1.bmp	fast	500	0		0	1	158040		0	0			0	0	156338	1	f	0	0	157539	f	363	157902	BlackFace2.bmp	TrialProc	0	0	157739	ChunkList1	WhiteBlack	1	whiteface1.bmp
Scherer_2015_WIP	1	1	1	j	RightGun	SubsessionProc	1	2	1	ResponseMapping	f	2	2	1	2	RunProc	DoIntro	1	1	2	1	BlackGun	BlackGunProc	BlockProcList	52		4			3	1	52	j	0	1	159541	whiteface4.bmp	fast	500	0		0	1	160242		0	0	4	WEAPON4.bmp	0	0	158540	1	j	0	0	159741	j	353	160094	WEAPON4.bmp	TrialProc	0	0	159941	ChunkList1	WhiteGun	4	whiteface4.bmp
Scherer_2015_WIP	1	1	1	j	RightGun	SubsessionProc	1	2	1	ResponseMapping	f	2	2	1	2	RunProc	DoIntro	1	1	2	1	BlackGun	BlackGunProc	BlockProcList	53	9	1	BlackFace3.bmp	BlackFace4.bmp	3	1	53	f	0	1	161743	BlackFace3.bmp	fast	500	0		0	1	162444		0	0			0	0	160742	1	f	0	0	161943	f	375	162318	BlackFace4.bmp	TrialProc	0	0	162143	ChunkList1	BlackBlack		
Scherer_2015_WIP	1	1	1	j	RightGun	SubsessionProc	1	2	1	ResponseMapping	f	2	2	1	2	RunProc	DoIntro	1	1	2	1	BlackGun	BlackGunProc	BlockProcList	54	7	2	BlackFace3.bmp	BlackFace1.bmp	3	1	54	j	0	1	163945	BlackFace3.bmp	fast	500	0		0	1	164646		0	0	1	WEAPON1.bmp	0	0	162944	1	j	0	0	164145	j	405	164550	WEAPON1.bmp	TrialProc	0	0	164345	ChunkList1	BlackGun		
Scherer_2015_WIP	1	1	1	j	RightGun	SubsessionProc	1	2	1	ResponseMapping	f	2	2	1	2	RunProc	DoIntro	1	1	2	1	BlackGun	BlackGunProc	BlockProcList	55	6	1	BlackFace2.bmp	BlackFace4.bmp	3	1	55	f	0	1	166147	BlackFace2.bmp	fast	500	0		0	1	166848		0	0			0	0	165146	1	f	0	0	166347	f	387	166734	BlackFace4.bmp	TrialProc	0	0	166547	ChunkList1	BlackBlack		
Scherer_2015_WIP	1	1	1	j	RightGun	SubsessionProc	1	2	1	ResponseMapping	f	2	2	1	2	RunProc	DoIntro	1	1	2	1	BlackGun	BlackGunProc	BlockProcList	56		4			3	1	56	j	0	1	168349	whiteface2.bmp	fast	500	0		0	1	169051		0	0	2	WEAPON2.bmp	0	0	167348	1	j	0	0	168549	j	377	168926	WEAPON2.bmp	TrialProc	0	1	168750	ChunkList1	WhiteGun	2	whiteface2.bmp
Scherer_2015_WIP	1	1	1	j	RightGun	SubsessionProc	1	2	1	ResponseMapping	f	2	2	1	2	RunProc	DoIntro	1	1	2	1	BlackGun	BlackGunProc	BlockProcList	57		4			3	1	57	j	0	1	170551	whiteface3.bmp	fast	500	0		0	1	171253		0	0	3	WEAPON3.bmp	0	-1	169550	1	j	0	0	170751	j	367	171118	WEAPON3.bmp	TrialProc	0	1	170952	ChunkList1	WhiteGun	3	whiteface3.bmp
Scherer_2015_WIP	1	1	1	j	RightGun	SubsessionProc	1	2	1	ResponseMapping	f	2	2	1	2	RunProc	DoIntro	1	1	2	1	BlackGun	BlackGunProc	BlockProcList	58	12	2	BlackFace4.bmp	BlackFace3.bmp	3	1	58	j	0	1	172753	BlackFace4.bmp	fast	500	0		0	1	173455		0	0	4	WEAPON4.bmp	0	-1	171752	1	j	0	0	172953	j	437	173390	WEAPON4.bmp	TrialProc	0	1	173154	ChunkList1	BlackGun		
Scherer_2015_WIP	1	1	1	j	RightGun	SubsessionProc	1	2	1	ResponseMapping	f	2	2	1	2	RunProc	DoIntro	1	1	2	1	BlackGun	BlackGunProc	BlockProcList	59	2	1	BlackFace1.bmp	BlackFace3.bmp	3	1	59	f	0	1	174955	BlackFace1.bmp	fast	500	0		0	1	175657		0	0			0	-1	173954	1	f	0	1	175156	f	330	175486	BlackFace3.bmp	TrialProc	0	0	175356	ChunkList1	BlackBlack		
Scherer_2015_WIP	1	1	1	j	RightGun	SubsessionProc	1	2	1	ResponseMapping	f	2	2	1	2	RunProc	DoIntro	1	1	2	1	BlackGun	BlackGunProc	BlockProcList	60	8	2	BlackFace3.bmp	BlackFace2.bmp	3	1	60	j	0	1	177157	BlackFace3.bmp	fast	500	0		0	1	177859		0	0	2	WEAPON2.bmp	0	-1	176156	1	j	0	1	177358	j	424	177782	WEAPON2.bmp	TrialProc	0	0	177558	ChunkList1	BlackGun		
Scherer_2015_WIP	1	1	1	j	RightGun	SubsessionProc	1	2	1	ResponseMapping	f	2	2	1	2	RunProc	DoIntro	1	1	2	1	BlackGun	BlackGunProc	BlockProcList	61	1	3	BlackFace1.bmp	BlackFace2.bmp	3	1	61	f	0	0	179359	whiteface4.bmp	slow	1000	0		0	17	180077		0	0			0	0	178359	1	f	0	1	179560	f	502	180062	BlackFace2.bmp	TrialProc	0	0	179760	ChunkList1	WhiteBlack	4	whiteface4.bmp
Scherer_2015_WIP	1	1	1	j	RightGun	SubsessionProc	1	2	1	ResponseMapping	f	2	2	1	2	RunProc	DoIntro	1	1	2	1	BlackGun	BlackGunProc	BlockProcList	62	5	2	BlackFace2.bmp	BlackFace3.bmp	3	1	62	j	0	1	182079	BlackFace2.bmp	fast	500	0		0	2	182781		0	0	3	WEAPON3.bmp	0	1	181078	1	j	0	0	182279	j	495	182774	WEAPON3.bmp	TrialProc	0	0	182479	ChunkList1	BlackGun		
Scherer_2015_WIP	1	1	1	j	RightGun	SubsessionProc	1	2	1	ResponseMapping	f	2	2	1	2	RunProc	DoIntro	1	1	2	1	BlackGun	BlackGunProc	BlockProcList	63		4			3	1	63	j	0	1	184281	whiteface3.bmp	fast	500	0		0	1	184982		0	0	1	WEAPON1.bmp	0	-1	183280	1	j	0	0	184481	j	397	184878	WEAPON1.bmp	TrialProc	0	0	184681	ChunkList1	WhiteGun	3	whiteface3.bmp
Scherer_2015_WIP	1	1	1	j	RightGun	SubsessionProc	1	2	1	ResponseMapping	f	2	2	1	2	RunProc	DoIntro	1	1	2	1	BlackGun	BlackGunProc	BlockProcList	64	4	3	BlackFace2.bmp	BlackFace1.bmp	3	1	64	f	0	1	186483	whiteface2.bmp	fast	500	0		0	1	187184		0	0			0	0	185482	1	f	0	0	186683	f	379	187062	BlackFace1.bmp	TrialProc	0	0	186883	ChunkList1	WhiteBlack	2	whiteface2.bmp
Scherer_2015_WIP	1	1	1	j	RightGun	SubsessionProc	1	2	1	ResponseMapping	f	2	2	1	2	RunProc	DoIntro	1	1	2	1	BlackGun	BlackGunProc	BlockProcList	65	10	3	BlackFace4.bmp	BlackFace1.bmp	3	1	65	f	0	1	188685	whiteface1.bmp	fast	500	0		0	1	189386		0	0			0	0	187684	1	f	0	0	188885	f	401	189286	BlackFace1.bmp	TrialProc	0	0	189085	ChunkList1	WhiteBlack	1	whiteface1.bmp
Scherer_2015_WIP	1	1	1	j	RightGun	SubsessionProc	1	2	1	ResponseMapping	f	2	2	1	2	RunProc	DoIntro	1	1	2	1	BlackGun	BlackGunProc	BlockProcList	66					4	1	66																														BreakTime				ChunkList1			
Scherer_2015_WIP	1	1	1	j	RightGun	SubsessionProc	1	2	1	ResponseMapping	f	2	2	1	2	RunProc	DoIntro	1	1	2	1	BlackGun	BlackGunProc	BlockProcList	67		4			5	1	67	j	0	1	307246	whiteface1.bmp	fast	500	0		0	1	307947		0	0	1	WEAPON1.bmp	0	7	306245	1	j	0	0	307446	j	432	307878	WEAPON1.bmp	TrialProc	0	0	307646	ChunkList1	WhiteGun	1	whiteface1.bmp
Scherer_2015_WIP	1	1	1	j	RightGun	SubsessionProc	1	2	1	ResponseMapping	f	2	2	1	2	RunProc	DoIntro	1	1	2	1	BlackGun	BlackGunProc	BlockProcList	68	6	2	BlackFace2.bmp	BlackFace4.bmp	5	1	68	j	0	1	309448	BlackFace2.bmp	fast	500	0		0	1	310150		0	0	4	WEAPON4.bmp	0	0	308447	1	j	0	0	309648	j	406	310054	WEAPON4.bmp	TrialProc	0	1	309849	ChunkList1	BlackGun		
Scherer_2015_WIP	1	1	1	j	RightGun	SubsessionProc	1	2	1	ResponseMapping	f	2	2	1	2	RunProc	DoIntro	1	1	2	1	BlackGun	BlackGunProc	BlockProcList	69		4			5	1	69	j	0	1	311650	whiteface4.bmp	fast	500	0		0	1	312352		0	0	2	WEAPON2.bmp	0	-1	310649	1	j	0	0	311850	j	388	312238	WEAPON2.bmp	TrialProc	0	1	312051	ChunkList1	WhiteGun	4	whiteface4.bmp
Scherer_2015_WIP	1	1	1	j	RightGun	SubsessionProc	1	2	1	ResponseMapping	f	2	2	1	2	RunProc	DoIntro	1	1	2	1	BlackGun	BlackGunProc	BlockProcList	70		4			5	1	70	j	0	1	313852	whiteface3.bmp	fast	500	0		0	1	314554		0	0	3	WEAPON3.bmp	0	-1	312851	1	j	0	0	314052	j	418	314470	WEAPON3.bmp	TrialProc	0	1	314253	ChunkList1	WhiteGun	3	whiteface3.bmp
Scherer_2015_WIP	1	1	1	j	RightGun	SubsessionProc	1	2	1	ResponseMapping	f	2	2	1	2	RunProc	DoIntro	1	1	2	1	BlackGun	BlackGunProc	BlockProcList	71	9	2	BlackFace3.bmp	BlackFace4.bmp	5	1	71	j	0	1	316054	BlackFace3.bmp	fast	500	0		0	1	316756		0	0	2	WEAPON2.bmp	0	-1	315053	1	j	0	1	316255	j	439	316694	WEAPON2.bmp	TrialProc	0	0	316455	ChunkList1	BlackGun		
Scherer_2015_WIP	1	1	1	j	RightGun	SubsessionProc	1	2	1	ResponseMapping	f	2	2	1	2	RunProc	DoIntro	1	1	2	1	BlackGun	BlackGunProc	BlockProcList	72	4	2	BlackFace2.bmp	BlackFace1.bmp	5	1	72	j	0	1	318256	BlackFace2.bmp	fast	500	0		0	1	318958		0	0	1	WEAPON1.bmp	0	-1	317255	0	j	0	1	318457	f	341	318798	WEAPON1.bmp	TrialProc	0	0	318657	ChunkList1	BlackGun		
Scherer_2015_WIP	1	1	1	j	RightGun	SubsessionProc	1	2	1	ResponseMapping	f	2	2	1	2	RunProc	DoIntro	1	1	2	1	BlackGun	BlackGunProc	BlockProcList	73	2	3	BlackFace1.bmp	BlackFace3.bmp	5	1	73	f	0	0	320458	whiteface2.bmp	fast	500	0		0	1	321160		0	0			0	0	319458	1	f	0	1	320659	f	386	321045	BlackFace3.bmp	TrialProc	0	0	320859	ChunkList1	WhiteBlack	2	whiteface2.bmp
Scherer_2015_WIP	1	1	1	j	RightGun	SubsessionProc	1	2	1	ResponseMapping	f	2	2	1	2	RunProc	DoIntro	1	1	2	1	BlackGun	BlackGunProc	BlockProcList	74	8	2	BlackFace3.bmp	BlackFace2.bmp	5	1	74	j	0	1	322661	BlackFace3.bmp	fast	500	0		0	1	323362		0	0	4	WEAPON4.bmp	0	0	321660	1	j	0	0	322861	j	384	323245	WEAPON4.bmp	TrialProc	0	0	323061	ChunkList1	BlackGun		
Scherer_2015_WIP	1	1	1	j	RightGun	SubsessionProc	1	2	1	ResponseMapping	f	2	2	1	2	RunProc	DoIntro	1	1	2	1	BlackGun	BlackGunProc	BlockProcList	75		4			5	1	75	j	0	1	324863	whiteface2.bmp	fast	500	0		0	1	325564		0	0	3	WEAPON3.bmp	0	0	323862	1	j	0	0	325063	j	359	325422	WEAPON3.bmp	TrialProc	0	0	325263	ChunkList1	WhiteGun	2	whiteface2.bmp
Scherer_2015_WIP	1	1	1	j	RightGun	SubsessionProc	1	2	1	ResponseMapping	f	2	2	1	2	RunProc	DoIntro	1	1	2	1	BlackGun	BlackGunProc	BlockProcList	76	12	3	BlackFace4.bmp	BlackFace3.bmp	5	1	76	f	0	1	327065	whiteface4.bmp	slow	1000	0		0	17	327782		0	0			0	0	326064	1	f	0	0	327265	f	502	327767	BlackFace3.bmp	TrialProc	0	0	327465	ChunkList1	WhiteBlack	4	whiteface4.bmp
Scherer_2015_WIP	1	1	1	j	RightGun	SubsessionProc	1	2	1	ResponseMapping	f	2	2	1	2	RunProc	DoIntro	1	1	2	1	BlackGun	BlackGunProc	BlockProcList	77	11	2	BlackFace4.bmp	BlackFace2.bmp	5	1	77	j	0	1	329784	BlackFace4.bmp	fast	500	0		0	1	330485		0	0	4	WEAPON4.bmp	0	1	328783	1	j	0	0	329984	j	389	330373	WEAPON4.bmp	TrialProc	0	0	330184	ChunkList1	BlackGun		
Scherer_2015_WIP	1	1	1	j	RightGun	SubsessionProc	1	2	1	ResponseMapping	f	2	2	1	2	RunProc	DoIntro	1	1	2	1	BlackGun	BlackGunProc	BlockProcList	78	5	1	BlackFace2.bmp	BlackFace3.bmp	5	1	78	f	0	1	331986	BlackFace2.bmp	fast	500	0		0	1	332687		0	0			0	0	330985	1	f	0	0	332186	f	379	332565	BlackFace3.bmp	TrialProc	0	0	332386	ChunkList1	BlackBlack		
Scherer_2015_WIP	1	1	1	j	RightGun	SubsessionProc	1	2	1	ResponseMapping	f	2	2	1	2	RunProc	DoIntro	1	1	2	1	BlackGun	BlackGunProc	BlockProcList	79	10	2	BlackFace4.bmp	BlackFace1.bmp	5	1	79	j	0	1	334188	BlackFace4.bmp	fast	500	0		0	1	334889		0	0	2	WEAPON2.bmp	0	0	333187	1	j	0	0	334388	j	393	334781	WEAPON2.bmp	TrialProc	0	0	334588	ChunkList1	BlackGun		
Scherer_2015_WIP	1	1	1	j	RightGun	SubsessionProc	1	2	1	ResponseMapping	f	2	2	1	2	RunProc	DoIntro	1	1	2	1	BlackGun	BlackGunProc	BlockProcList	80	3	3	BlackFace1.bmp	BlackFace4.bmp	5	1	80	f	0	1	336390	whiteface3.bmp	fast	500	0		0	1	337091		0	0			0	0	335389	1	f	0	0	336590	f	367	336957	BlackFace4.bmp	TrialProc	0	0	336790	ChunkList1	WhiteBlack	3	whiteface3.bmp
Scherer_2015_WIP	1	1	1	j	RightGun	SubsessionProc	1	2	1	ResponseMapping	f	2	2	1	2	RunProc	DoIntro	1	1	2	1	BlackGun	BlackGunProc	BlockProcList	81		4			5	1	81	j	0	1	338592	whiteface1.bmp	fast	500	0		0	1	339294		0	0	3	WEAPON3.bmp	0	0	337591	1	j	0	0	338792	j	389	339181	WEAPON3.bmp	TrialProc	0	1	338993	ChunkList1	WhiteGun	1	whiteface1.bmp
Scherer_2015_WIP	1	1	1	j	RightGun	SubsessionProc	1	2	1	ResponseMapping	f	2	2	1	2	RunProc	DoIntro	1	1	2	1	BlackGun	BlackGunProc	BlockProcList	82	1	1	BlackFace1.bmp	BlackFace2.bmp	5	1	82	f	0	1	340794	BlackFace1.bmp	fast	500	0		0	1	341496		0	0			0	-1	339793	1	f	0	0	340994	f	355	341349	BlackFace2.bmp	TrialProc	0	1	341195	ChunkList1	BlackBlack		
Scherer_2015_WIP	1	1	1	j	RightGun	SubsessionProc	1	2	1	ResponseMapping	f	2	2	1	2	RunProc	DoIntro	1	1	2	1	BlackGun	BlackGunProc	BlockProcList	83	7	1	BlackFace3.bmp	BlackFace1.bmp	5	1	83	f	0	1	342996	BlackFace3.bmp	fast	500	0		0	1	343698		0	0			0	-1	341995	1	f	0	0	343196	f	369	343565	BlackFace1.bmp	TrialProc	0	1	343397	ChunkList1	BlackBlack		
Scherer_2015_WIP	1	1	1	j	RightGun	SubsessionProc	1	2	1	ResponseMapping	f	2	2	1	2	RunProc	DoIntro	1	1	2	1	BlackGun	BlackGunProc	BlockProcList	84	4	2	BlackFace2.bmp	BlackFace1.bmp	5	1	84	j	0	1	345198	BlackFace2.bmp	fast	500	0		0	1	345900		0	0	1	WEAPON1.bmp	0	-1	344197	1	j	0	1	345399	j	366	345765	WEAPON1.bmp	TrialProc	0	0	345599	ChunkList1	BlackGun		
Scherer_2015_WIP	1	1	1	j	RightGun	SubsessionProc	1	2	1	ResponseMapping	f	2	2	1	2	RunProc	DoIntro	1	1	2	1	BlackGun	BlackGunProc	BlockProcList	85	8	1	BlackFace3.bmp	BlackFace2.bmp	5	1	85	f	0	1	347400	BlackFace3.bmp	fast	500	0		0	1	348102		0	0			0	-1	346399	1	f	0	1	347601	f	284	347885	BlackFace2.bmp	TrialProc	0	0	347801	ChunkList1	BlackBlack		
Scherer_2015_WIP	1	1	1	j	RightGun	SubsessionProc	1	2	1	ResponseMapping	f	2	2	1	2	RunProc	DoIntro	1	1	2	1	BlackGun	BlackGunProc	BlockProcList	86		4			5	1	86	j	0	0	349602	whiteface2.bmp	fast	500	0		0	1	350304		0	0	4	WEAPON4.bmp	0	0	348602	1	j	0	1	349803	j	346	350149	WEAPON4.bmp	TrialProc	0	0	350003	ChunkList1	WhiteGun	2	whiteface2.bmp
Scherer_2015_WIP	1	1	1	j	RightGun	SubsessionProc	1	2	1	ResponseMapping	f	2	2	1	2	RunProc	DoIntro	1	1	2	1	BlackGun	BlackGunProc	BlockProcList	87	11	1	BlackFace4.bmp	BlackFace2.bmp	5	1	87	f	0	1	351805	BlackFace4.bmp	fast	500	0		0	1	352506		0	0			0	0	350804	1	f	0	0	352005	f	344	352349	BlackFace2.bmp	TrialProc	0	0	352205	ChunkList1	BlackBlack		
Scherer_2015_WIP	1	1	1	j	RightGun	SubsessionProc	1	2	1	ResponseMapping	f	2	2	1	2	RunProc	DoIntro	1	1	2	1	BlackGun	BlackGunProc	BlockProcList	88		4			5	1	88	j	0	1	354007	whiteface1.bmp	fast	500	0		0	1	354708		0	0	3	WEAPON3.bmp	0	0	353006	1	j	0	0	354207	j	334	354541	WEAPON3.bmp	TrialProc	0	0	354407	ChunkList1	WhiteGun	1	whiteface1.bmp
Scherer_2015_WIP	1	1	1	j	RightGun	SubsessionProc	1	2	1	ResponseMapping	f	2	2	1	2	RunProc	DoIntro	1	1	2	1	BlackGun	BlackGunProc	BlockProcList	89	1	3	BlackFace1.bmp	BlackFace2.bmp	5	1	89	f	0	1	356209	whiteface3.bmp	fast	500	0		0	1	356910		0	0			0	0	355208	1	f	0	0	356409	f	372	356781	BlackFace2.bmp	TrialProc	0	0	356609	ChunkList1	WhiteBlack	3	whiteface3.bmp
Scherer_2015_WIP	1	1	1	j	RightGun	SubsessionProc	1	2	1	ResponseMapping	f	2	2	1	2	RunProc	DoIntro	1	1	2	1	BlackGun	BlackGunProc	BlockProcList	90	12	1	BlackFace4.bmp	BlackFace3.bmp	5	1	90	f	0	1	358411	BlackFace4.bmp	fast	500	0		0	1	359112		0	0			0	0	357410	1	f	0	0	358611	f	362	358973	BlackFace3.bmp	TrialProc	0	0	358811	ChunkList1	BlackBlack		
Scherer_2015_WIP	1	1	1	j	RightGun	SubsessionProc	1	2	1	ResponseMapping	f	2	2	1	2	RunProc	DoIntro	1	1	2	1	BlackGun	BlackGunProc	BlockProcList	91		4			5	1	91	j	0	1	360613	whiteface4.bmp	fast	500	0		0	1	361314		0	0	2	WEAPON2.bmp	0	0	359612	1	j	0	0	360813	j	304	361117	WEAPON2.bmp	TrialProc	0	0	361013	ChunkList1	WhiteGun	4	whiteface4.bmp
Scherer_2015_WIP	1	1	1	j	RightGun	SubsessionProc	1	2	1	ResponseMapping	f	2	2	1	2	RunProc	DoIntro	1	1	2	1	BlackGun	BlackGunProc	BlockProcList	92	5	1	BlackFace2.bmp	BlackFace3.bmp	5	1	92	f	0	1	362815	BlackFace2.bmp	fast	500	0		0	1	363516		0	0			0	0	361814	1	f	0	0	363015	f	350	363365	BlackFace3.bmp	TrialProc	0	0	363215	ChunkList1	BlackBlack		
Scherer_2015_WIP	1	1	1	j	RightGun	SubsessionProc	1	2	1	ResponseMapping	f	2	2	1	2	RunProc	DoIntro	1	1	2	1	BlackGun	BlackGunProc	BlockProcList	93	7	3	BlackFace3.bmp	BlackFace1.bmp	5	1	93	f	0	1	365017	whiteface4.bmp	fast	500	0		0	1	365718		0	0			0	0	364016	0	f	0	0	365217	j	316	365533	BlackFace1.bmp	TrialProc	0	0	365417	ChunkList1	WhiteBlack	4	whiteface4.bmp
Scherer_2015_WIP	1	1	1	j	RightGun	SubsessionProc	1	2	1	ResponseMapping	f	2	2	1	2	RunProc	DoIntro	1	1	2	1	BlackGun	BlackGunProc	BlockProcList	94		4			5	1	94	j	0	1	367219	whiteface3.bmp	fast	500	0		0	1	367920		0	0	1	WEAPON1.bmp	0	0	366218	1	j	0	0	367419	j	306	367725	WEAPON1.bmp	TrialProc	0	0	367619	ChunkList1	WhiteGun	3	whiteface3.bmp
Scherer_2015_WIP	1	1	1	j	RightGun	SubsessionProc	1	2	1	ResponseMapping	f	2	2	1	2	RunProc	DoIntro	1	1	2	1	BlackGun	BlackGunProc	BlockProcList	95	2	2	BlackFace1.bmp	BlackFace3.bmp	5	1	95	j	0	1	369421	BlackFace1.bmp	fast	500	0		0	1	370122		0	0	2	WEAPON2.bmp	0	0	368420	1	j	0	0	369621	j	368	369989	WEAPON2.bmp	TrialProc	0	0	369821	ChunkList1	BlackGun		
Scherer_2015_WIP	1	1	1	j	RightGun	SubsessionProc	1	2	1	ResponseMapping	f	2	2	1	2	RunProc	DoIntro	1	1	2	1	BlackGun	BlackGunProc	BlockProcList	96		4			5	1	96	j	0	1	371623	whiteface2.bmp	fast	500	0		0	1	372325		0	0	4	WEAPON4.bmp	0	0	370622	1	j	0	0	371823	j	374	372197	WEAPON4.bmp	TrialProc	0	1	372024	ChunkList1	WhiteGun	2	whiteface2.bmp
Scherer_2015_WIP	1	1	1	j	RightGun	SubsessionProc	1	2	1	ResponseMapping	f	2	2	1	2	RunProc	DoIntro	1	1	2	1	BlackGun	BlackGunProc	BlockProcList	97	9	3	BlackFace3.bmp	BlackFace4.bmp	5	1	97	f	0	1	373825	whiteface1.bmp	fast	500	0		0	1	374527		0	0			0	-1	372824	1	f	0	0	374025	f	420	374445	BlackFace4.bmp	TrialProc	0	1	374226	ChunkList1	WhiteBlack	1	whiteface1.bmp
Scherer_2015_WIP	1	1	1	j	RightGun	SubsessionProc	1	2	1	ResponseMapping	f	2	2	1	2	RunProc	DoIntro	1	1	2	1	BlackGun	BlackGunProc	BlockProcList	98	6	2	BlackFace2.bmp	BlackFace4.bmp	5	1	98	j	0	1	376027	BlackFace2.bmp	fast	500	0		0	1	376729		0	0	1	WEAPON1.bmp	0	-1	375026	1	j	0	0	376227	j	394	376621	WEAPON1.bmp	TrialProc	0	1	376428	ChunkList1	BlackGun		
Scherer_2015_WIP	1	1	1	j	RightGun	SubsessionProc	1	2	1	ResponseMapping	f	2	2	1	2	RunProc	DoIntro	1	1	2	1	BlackGun	BlackGunProc	BlockProcList	99					6	1	99																														PrepProc				ChunkList1			
Scherer_2015_WIP	1	1	1	j	RightGun	SubsessionProc	1	2	1	ResponseMapping	f	3	2	1	3	RunProc	DoIntro	1	1	4	1	BlackGun	BlackGunProc	BlockProcList	1	3	1	BlackFace1.bmp	BlackFace4.bmp	1	2	100	f	0	0	380848	BlackFace1.bmp	fast	500	0		0	1	381550		0	0			0	11	379848	1	f	0	1	381049	f	356	381405	BlackFace4.bmp	TrialProc	0	0	381249	ChunkList1	BlackBlack		
Scherer_2015_WIP	1	1	1	j	RightGun	SubsessionProc	1	2	1	ResponseMapping	f	3	2	1	3	RunProc	DoIntro	1	1	4	1	BlackGun	BlackGunProc	BlockProcList	2	10	2	BlackFace4.bmp	BlackFace1.bmp	1	2	101	j	0	1	383051	BlackFace4.bmp	fast	500	0		0	1	383752		0	0	3	WEAPON3.bmp	0	0	382050	1	j	0	0	383251	j	402	383653	WEAPON3.bmp	TrialProc	0	0	383451	ChunkList1	BlackGun		
Scherer_2015_WIP	1	1	1	j	RightGun	SubsessionProc	1	2	1	ResponseMapping	f	3	2	1	3	RunProc	DoIntro	1	1	4	1	BlackGun	BlackGunProc	BlockProcList	3	2	1	BlackFace1.bmp	BlackFace3.bmp	1	2	102	f	0	1	385253	BlackFace1.bmp	fast	500	0		0	1	385954		0	0			0	0	384252	1	f	0	0	385453	f	304	385757	BlackFace3.bmp	TrialProc	0	0	385653	ChunkList1	BlackBlack		
Scherer_2015_WIP	1	1	1	j	RightGun	SubsessionProc	1	2	1	ResponseMapping	f	3	2	1	3	RunProc	DoIntro	1	1	4	1	BlackGun	BlackGunProc	BlockProcList	4	12	3	BlackFace4.bmp	BlackFace3.bmp	1	2	103	f	0	1	387455	whiteface3.bmp	fast	500	0		0	1	388156		0	0			0	0	386454	0	f	0	0	387655	j	350	388005	BlackFace3.bmp	TrialProc	0	0	387855	ChunkList1	WhiteBlack	3	whiteface3.bmp
Scherer_2015_WIP	1	1	1	j	RightGun	SubsessionProc	1	2	1	ResponseMapping	f	3	2	1	3	RunProc	DoIntro	1	1	4	1	BlackGun	BlackGunProc	BlockProcList	5	11	3	BlackFace4.bmp	BlackFace2.bmp	1	2	104	f	0	1	389657	whiteface4.bmp	fast	500	0		0	1	390358		0	0			0	0	388656	1	f	0	0	389857	f	396	390253	BlackFace2.bmp	TrialProc	0	0	390057	ChunkList1	WhiteBlack	4	whiteface4.bmp
Scherer_2015_WIP	1	1	1	j	RightGun	SubsessionProc	1	2	1	ResponseMapping	f	3	2	1	3	RunProc	DoIntro	1	1	4	1	BlackGun	BlackGunProc	BlockProcList	6	8	1	BlackFace3.bmp	BlackFace2.bmp	1	2	105	f	0	1	391859	BlackFace3.bmp	fast	500	0		0	1	392560		0	0			0	0	390858	1	f	0	0	392059	f	394	392453	BlackFace2.bmp	TrialProc	0	0	392259	ChunkList1	BlackBlack		
Scherer_2015_WIP	1	1	1	j	RightGun	SubsessionProc	1	2	1	ResponseMapping	f	3	2	1	3	RunProc	DoIntro	1	1	4	1	BlackGun	BlackGunProc	BlockProcList	7		4			1	2	106	j	0	1	394061	whiteface1.bmp	fast	500	0		0	1	394762		0	0	3	WEAPON3.bmp	0	0	393060	1	j	0	0	394261	j	344	394605	WEAPON3.bmp	TrialProc	0	0	394461	ChunkList1	WhiteGun	1	whiteface1.bmp
Scherer_2015_WIP	1	1	1	j	RightGun	SubsessionProc	1	2	1	ResponseMapping	f	3	2	1	3	RunProc	DoIntro	1	1	4	1	BlackGun	BlackGunProc	BlockProcList	8	10	3	BlackFace4.bmp	BlackFace1.bmp	1	2	107	f	0	1	396263	whiteface2.bmp	fast	500	0		0	1	396964		0	0			0	0	395262	1	f	0	0	396463	f	398	396861	BlackFace1.bmp	TrialProc	0	0	396663	ChunkList1	WhiteBlack	2	whiteface2.bmp
Scherer_2015_WIP	1	1	1	j	RightGun	SubsessionProc	1	2	1	ResponseMapping	f	3	2	1	3	RunProc	DoIntro	1	1	4	1	BlackGun	BlackGunProc	BlockProcList	9	1	1	BlackFace1.bmp	BlackFace2.bmp	1	2	108	f	0	1	398465	BlackFace1.bmp	fast	500	0		0	1	399166		0	0			0	0	397464	1	f	0	0	398665	f	380	399045	BlackFace2.bmp	TrialProc	0	0	398865	ChunkList1	BlackBlack		
Scherer_2015_WIP	1	1	1	j	RightGun	SubsessionProc	1	2	1	ResponseMapping	f	3	2	1	3	RunProc	DoIntro	1	1	4	1	BlackGun	BlackGunProc	BlockProcList	10	4	1	BlackFace2.bmp	BlackFace1.bmp	1	2	109	f	0	1	400667	BlackFace2.bmp	fast	500	0		0	1	401368		0	0			0	0	399666	1	f	0	0	400867	f	338	401205	BlackFace1.bmp	TrialProc	0	0	401067	ChunkList1	BlackBlack		
Scherer_2015_WIP	1	1	1	j	RightGun	SubsessionProc	1	2	1	ResponseMapping	f	3	2	1	3	RunProc	DoIntro	1	1	4	1	BlackGun	BlackGunProc	BlockProcList	11		4			1	2	110	j	0	1	402869	whiteface4.bmp	fast	500	0		0	1	403570		0	0	4	WEAPON4.bmp	0	0	401868	1	j	0	0	403069	j	352	403421	WEAPON4.bmp	TrialProc	0	0	403269	ChunkList1	WhiteGun	4	whiteface4.bmp
Scherer_2015_WIP	1	1	1	j	RightGun	SubsessionProc	1	2	1	ResponseMapping	f	3	2	1	3	RunProc	DoIntro	1	1	4	1	BlackGun	BlackGunProc	BlockProcList	12	3	3	BlackFace1.bmp	BlackFace4.bmp	1	2	111	f	0	1	405071	whiteface3.bmp	fast	500	0		0	1	405773		0	0			0	0	404070	1	f	0	0	405271	f	374	405645	BlackFace4.bmp	TrialProc	0	1	405472	ChunkList1	WhiteBlack	3	whiteface3.bmp
Scherer_2015_WIP	1	1	1	j	RightGun	SubsessionProc	1	2	1	ResponseMapping	f	3	2	1	3	RunProc	DoIntro	1	1	4	1	BlackGun	BlackGunProc	BlockProcList	13	6	2	BlackFace2.bmp	BlackFace4.bmp	1	2	112	j	0	1	407273	BlackFace2.bmp	fast	500	0		0	1	407975		0	0	1	WEAPON1.bmp	0	-1	406272	1	j	0	0	407473	j	420	407893	WEAPON1.bmp	TrialProc	0	1	407674	ChunkList1	BlackGun		
Scherer_2015_WIP	1	1	1	j	RightGun	SubsessionProc	1	2	1	ResponseMapping	f	3	2	1	3	RunProc	DoIntro	1	1	4	1	BlackGun	BlackGunProc	BlockProcList	14		4			1	2	113	j	0	1	409475	whiteface2.bmp	fast	500	0		0	1	410177		0	0	2	WEAPON2.bmp	0	-1	408474	1	j	0	0	409675	j	442	410117	WEAPON2.bmp	TrialProc	0	1	409876	ChunkList1	WhiteGun	2	whiteface2.bmp
Scherer_2015_WIP	1	1	1	j	RightGun	SubsessionProc	1	2	1	ResponseMapping	f	3	2	1	3	RunProc	DoIntro	1	1	4	1	BlackGun	BlackGunProc	BlockProcList	15	5	3	BlackFace2.bmp	BlackFace3.bmp	1	2	114	f	0	1	411677	whiteface1.bmp	fast	500	0		0	1	412379		0	0			0	-1	410676	1	f	0	1	411878	f	327	412205	BlackFace3.bmp	TrialProc	0	0	412078	ChunkList1	WhiteBlack	1	whiteface1.bmp
Scherer_2015_WIP	1	1	1	j	RightGun	SubsessionProc	1	2	1	ResponseMapping	f	3	2	1	3	RunProc	DoIntro	1	1	4	1	BlackGun	BlackGunProc	BlockProcList	16		4			1	2	115	j	0	1	413879	whiteface1.bmp	fast	500	0		0	1	414581		0	0	2	WEAPON2.bmp	0	-1	412878	1	j	0	1	414080	j	357	414437	WEAPON2.bmp	TrialProc	0	0	414280	ChunkList1	WhiteGun	1	whiteface1.bmp
Scherer_2015_WIP	1	1	1	j	RightGun	SubsessionProc	1	2	1	ResponseMapping	f	3	2	1	3	RunProc	DoIntro	1	1	4	1	BlackGun	BlackGunProc	BlockProcList	17	7	2	BlackFace3.bmp	BlackFace1.bmp	1	2	116	j	0	0	416081	BlackFace3.bmp	fast	500	0		0	1	416783		0	0	3	WEAPON3.bmp	0	0	415081	0	j	0	1	416282	f	275	416557	WEAPON3.bmp	TrialProc	0	0	416482	ChunkList1	BlackGun		
Scherer_2015_WIP	1	1	1	j	RightGun	SubsessionProc	1	2	1	ResponseMapping	f	3	2	1	3	RunProc	DoIntro	1	1	4	1	BlackGun	BlackGunProc	BlockProcList	18		4			1	2	117	j	0	1	418284	whiteface3.bmp	fast	500	0		0	1	418985		0	0	4	WEAPON4.bmp	0	0	417283	1	j	0	0	418484	j	377	418861	WEAPON4.bmp	TrialProc	0	0	418684	ChunkList1	WhiteGun	3	whiteface3.bmp
Scherer_2015_WIP	1	1	1	j	RightGun	SubsessionProc	1	2	1	ResponseMapping	f	3	2	1	3	RunProc	DoIntro	1	1	4	1	BlackGun	BlackGunProc	BlockProcList	19	9	3	BlackFace3.bmp	BlackFace4.bmp	1	2	118	f	0	1	420486	whiteface2.bmp	fast	500	0		0	1	421187		0	0			0	0	419485	1	f	0	0	420686	f	399	421085	BlackFace4.bmp	TrialProc	0	0	420886	ChunkList1	WhiteBlack	2	whiteface2.bmp
Scherer_2015_WIP	1	1	1	j	RightGun	SubsessionProc	1	2	1	ResponseMapping	f	3	2	1	3	RunProc	DoIntro	1	1	4	1	BlackGun	BlackGunProc	BlockProcList	20	1	2	BlackFace1.bmp	BlackFace2.bmp	1	2	119	j	0	1	422688	BlackFace1.bmp	fast	500	0		0	1	423389		0	0	1	WEAPON1.bmp	0	0	421687	1	j	0	0	422888	j	341	423229	WEAPON1.bmp	TrialProc	0	0	423088	ChunkList1	BlackGun		
Scherer_2015_WIP	1	1	1	j	RightGun	SubsessionProc	1	2	1	ResponseMapping	f	3	2	1	3	RunProc	DoIntro	1	1	4	1	BlackGun	BlackGunProc	BlockProcList	21	7	1	BlackFace3.bmp	BlackFace1.bmp	1	2	120	f	0	1	424890	BlackFace3.bmp	fast	500	0		0	1	425591		0	0			0	0	423889	1	f	0	0	425090	f	387	425477	BlackFace1.bmp	TrialProc	0	0	425290	ChunkList1	BlackBlack		
Scherer_2015_WIP	1	1	1	j	RightGun	SubsessionProc	1	2	1	ResponseMapping	f	3	2	1	3	RunProc	DoIntro	1	1	4	1	BlackGun	BlackGunProc	BlockProcList	22	6	1	BlackFace2.bmp	BlackFace4.bmp	1	2	121	f	0	1	427092	BlackFace2.bmp	fast	500	0		0	1	427793		0	0			0	0	426091	1	f	0	0	427292	f	305	427597	BlackFace4.bmp	TrialProc	0	0	427492	ChunkList1	BlackBlack		
Scherer_2015_WIP	1	1	1	j	RightGun	SubsessionProc	1	2	1	ResponseMapping	f	3	2	1	3	RunProc	DoIntro	1	1	4	1	BlackGun	BlackGunProc	BlockProcList	23	9	3	BlackFace3.bmp	BlackFace4.bmp	1	2	122	f	0	1	429294	whiteface4.bmp	fast	500	0		0	1	429995		0	0			0	0	428293	0	f	0	0	429494	j	399	429893	BlackFace4.bmp	TrialProc	0	0	429694	ChunkList1	WhiteBlack	4	whiteface4.bmp
Scherer_2015_WIP	1	1	1	j	RightGun	SubsessionProc	1	2	1	ResponseMapping	f	3	2	1	3	RunProc	DoIntro	1	1	4	1	BlackGun	BlackGunProc	BlockProcList	24		4			1	2	123	j	0	1	431496	whiteface3.bmp	fast	500	0		0	1	432197		0	0	3	WEAPON3.bmp	0	0	430495	1	j	0	0	431696	j	349	432045	WEAPON3.bmp	TrialProc	0	0	431896	ChunkList1	WhiteGun	3	whiteface3.bmp
Scherer_2015_WIP	1	1	1	j	RightGun	SubsessionProc	1	2	1	ResponseMapping	f	3	2	1	3	RunProc	DoIntro	1	1	4	1	BlackGun	BlackGunProc	BlockProcList	25	3	3	BlackFace1.bmp	BlackFace4.bmp	1	2	124	f	0	1	433698	whiteface4.bmp	fast	500	0		0	1	434399		0	0			0	0	432697	1	f	0	0	433898	f	339	434237	BlackFace4.bmp	TrialProc	0	0	434098	ChunkList1	WhiteBlack	4	whiteface4.bmp
Scherer_2015_WIP	1	1	1	j	RightGun	SubsessionProc	1	2	1	ResponseMapping	f	3	2	1	3	RunProc	DoIntro	1	1	4	1	BlackGun	BlackGunProc	BlockProcList	26	11	2	BlackFace4.bmp	BlackFace2.bmp	1	2	125	j	0	1	435900	BlackFace4.bmp	fast	500	0		0	1	436601		0	0	4	WEAPON4.bmp	0	0	434899	1	j	0	0	436100	j	377	436477	WEAPON4.bmp	TrialProc	0	0	436300	ChunkList1	BlackGun		
Scherer_2015_WIP	1	1	1	j	RightGun	SubsessionProc	1	2	1	ResponseMapping	f	3	2	1	3	RunProc	DoIntro	1	1	4	1	BlackGun	BlackGunProc	BlockProcList	27	4	3	BlackFace2.bmp	BlackFace1.bmp	1	2	126	f	0	1	438102	whiteface1.bmp	fast	500	0		0	1	438804		0	0			0	0	437101	1	f	0	0	438302	f	335	438637	BlackFace1.bmp	TrialProc	0	1	438503	ChunkList1	WhiteBlack	1	whiteface1.bmp
Scherer_2015_WIP	1	1	1	j	RightGun	SubsessionProc	1	2	1	ResponseMapping	f	3	2	1	3	RunProc	DoIntro	1	1	4	1	BlackGun	BlackGunProc	BlockProcList	28	5	1	BlackFace2.bmp	BlackFace3.bmp	1	2	127	f	0	1	440304	BlackFace2.bmp	fast	500	0		0	1	441006		0	0			0	-1	439303	1	f	0	0	440504	f	437	440941	BlackFace3.bmp	TrialProc	0	1	440705	ChunkList1	BlackBlack		
Scherer_2015_WIP	1	1	1	j	RightGun	SubsessionProc	1	2	1	ResponseMapping	f	3	2	1	3	RunProc	DoIntro	1	1	4	1	BlackGun	BlackGunProc	BlockProcList	29	2	1	BlackFace1.bmp	BlackFace3.bmp	1	2	128	f	0	1	442506	BlackFace1.bmp	fast	500	0		0	1	443208		0	0			0	-1	441505	1	f	0	0	442706	f	339	443045	BlackFace3.bmp	TrialProc	0	1	442907	ChunkList1	BlackBlack		
Scherer_2015_WIP	1	1	1	j	RightGun	SubsessionProc	1	2	1	ResponseMapping	f	3	2	1	3	RunProc	DoIntro	1	1	4	1	BlackGun	BlackGunProc	BlockProcList	30	12	3	BlackFace4.bmp	BlackFace3.bmp	1	2	129	f	0	1	444708	whiteface2.bmp	fast	500	0		0	1	445410		0	0			0	-1	443707	1	f	0	1	444909	f	360	445269	BlackFace3.bmp	TrialProc	0	0	445109	ChunkList1	WhiteBlack	2	whiteface2.bmp
Scherer_2015_WIP	1	1	1	j	RightGun	SubsessionProc	1	2	1	ResponseMapping	f	3	2	1	3	RunProc	DoIntro	1	1	4	1	BlackGun	BlackGunProc	BlockProcList	31	10	2	BlackFace4.bmp	BlackFace1.bmp	1	2	130	j	0	1	446910	BlackFace4.bmp	fast	500	0		0	1	447612		0	0	1	WEAPON1.bmp	0	-1	445909	1	j	0	1	447111	j	358	447469	WEAPON1.bmp	TrialProc	0	0	447311	ChunkList1	BlackGun		
Scherer_2015_WIP	1	1	1	j	RightGun	SubsessionProc	1	2	1	ResponseMapping	f	3	2	1	3	RunProc	DoIntro	1	1	4	1	BlackGun	BlackGunProc	BlockProcList	32	8	2	BlackFace3.bmp	BlackFace2.bmp	1	2	131	j	0	0	449112	BlackFace3.bmp	fast	500	0		0	1	449814		0	0	2	WEAPON2.bmp	0	0	448112	1	j	0	1	449313	j	444	449757	WEAPON2.bmp	TrialProc	0	0	449513	ChunkList1	BlackGun		
Scherer_2015_WIP	1	1	1	j	RightGun	SubsessionProc	1	2	1	ResponseMapping	f	3	2	1	3	RunProc	DoIntro	1	1	4	1	BlackGun	BlackGunProc	BlockProcList	33					2	2	132																														BreakTime				ChunkList1			
Scherer_2015_WIP	1	1	1	j	RightGun	SubsessionProc	1	2	1	ResponseMapping	f	3	2	1	3	RunProc	DoIntro	1	1	4	1	BlackGun	BlackGunProc	BlockProcList	34	3	2	BlackFace1.bmp	BlackFace4.bmp	3	2	133	j	0	1	525401	BlackFace1.bmp	fast	500	0		0	1	526102		0	0	4	WEAPON4.bmp	0	4	524400	0	j	0	0	525601	f	387	525988	WEAPON4.bmp	TrialProc	0	0	525801	ChunkList1	BlackGun		
Scherer_2015_WIP	1	1	1	j	RightGun	SubsessionProc	1	2	1	ResponseMapping	f	3	2	1	3	RunProc	DoIntro	1	1	4	1	BlackGun	BlackGunProc	BlockProcList	35	4	2	BlackFace2.bmp	BlackFace1.bmp	3	2	134	j	0	1	527603	BlackFace2.bmp	fast	500	0		0	1	528304		0	0	1	WEAPON1.bmp	0	0	526602	1	j	0	0	527803	j	377	528180	WEAPON1.bmp	TrialProc	0	0	528003	ChunkList1	BlackGun		
Scherer_2015_WIP	1	1	1	j	RightGun	SubsessionProc	1	2	1	ResponseMapping	f	3	2	1	3	RunProc	DoIntro	1	1	4	1	BlackGun	BlackGunProc	BlockProcList	36		4			3	2	135	j	0	1	529805	whiteface2.bmp	fast	500	0		0	1	530506		0	0	3	WEAPON3.bmp	0	0	528804	1	j	0	0	530005	j	391	530396	WEAPON3.bmp	TrialProc	0	0	530205	ChunkList1	WhiteGun	2	whiteface2.bmp
Scherer_2015_WIP	1	1	1	j	RightGun	SubsessionProc	1	2	1	ResponseMapping	f	3	2	1	3	RunProc	DoIntro	1	1	4	1	BlackGun	BlackGunProc	BlockProcList	37	12	2	BlackFace4.bmp	BlackFace3.bmp	3	2	136	j	0	1	532007	BlackFace4.bmp	fast	500	0		0	1	532708		0	0	2	WEAPON2.bmp	0	0	531006	1	j	0	0	532207	j	365	532572	WEAPON2.bmp	TrialProc	0	0	532407	ChunkList1	BlackGun		
Scherer_2015_WIP	1	1	1	j	RightGun	SubsessionProc	1	2	1	ResponseMapping	f	3	2	1	3	RunProc	DoIntro	1	1	4	1	BlackGun	BlackGunProc	BlockProcList	38	6	2	BlackFace2.bmp	BlackFace4.bmp	3	2	137	j	0	1	534209	BlackFace2.bmp	fast	500	0		0	1	534910		0	0	2	WEAPON2.bmp	0	0	533208	1	j	0	0	534409	j	355	534764	WEAPON2.bmp	TrialProc	0	0	534609	ChunkList1	BlackGun		
Scherer_2015_WIP	1	1	1	j	RightGun	SubsessionProc	1	2	1	ResponseMapping	f	3	2	1	3	RunProc	DoIntro	1	1	4	1	BlackGun	BlackGunProc	BlockProcList	39	2	1	BlackFace1.bmp	BlackFace3.bmp	3	2	138	f	0	1	536411	BlackFace1.bmp	fast	500	0		0	1	537112		0	0			0	0	535410	1	f	0	0	536611	f	361	536972	BlackFace3.bmp	TrialProc	0	0	536811	ChunkList1	BlackBlack		
Scherer_2015_WIP	1	1	1	j	RightGun	SubsessionProc	1	2	1	ResponseMapping	f	3	2	1	3	RunProc	DoIntro	1	1	4	1	BlackGun	BlackGunProc	BlockProcList	40		4			3	2	139	j	0	1	538613	whiteface3.bmp	fast	500	0		0	1	539314		0	0	3	WEAPON3.bmp	0	0	537612	1	j	0	0	538813	j	335	539148	WEAPON3.bmp	TrialProc	0	0	539013	ChunkList1	WhiteGun	3	whiteface3.bmp
Scherer_2015_WIP	1	1	1	j	RightGun	SubsessionProc	1	2	1	ResponseMapping	f	3	2	1	3	RunProc	DoIntro	1	1	4	1	BlackGun	BlackGunProc	BlockProcList	41	7	3	BlackFace3.bmp	BlackFace1.bmp	3	2	140	f	0	1	540815	whiteface4.bmp	fast	500	0		0	1	541517		0	0			0	0	539814	0	f	0	0	541015	j	429	541444	BlackFace1.bmp	TrialProc	0	1	541216	ChunkList1	WhiteBlack	4	whiteface4.bmp
Scherer_2015_WIP	1	1	1	j	RightGun	SubsessionProc	1	2	1	ResponseMapping	f	3	2	1	3	RunProc	DoIntro	1	1	4	1	BlackGun	BlackGunProc	BlockProcList	42		4			3	2	141	j	0	1	543017	whiteface1.bmp	fast	500	0		0	1	543719		0	0	1	WEAPON1.bmp	0	-1	542016	1	j	0	0	543217	j	363	543580	WEAPON1.bmp	TrialProc	0	1	543418	ChunkList1	WhiteGun	1	whiteface1.bmp
Scherer_2015_WIP	1	1	1	j	RightGun	SubsessionProc	1	2	1	ResponseMapping	f	3	2	1	3	RunProc	DoIntro	1	1	4	1	BlackGun	BlackGunProc	BlockProcList	43		4			3	2	142	j	0	1	545219	whiteface2.bmp	fast	500	0		0	1	545921		0	0	4	WEAPON4.bmp	0	-1	544218	0	j	0	0	545419	f	393	545812	WEAPON4.bmp	TrialProc	0	1	545620	ChunkList1	WhiteGun	2	whiteface2.bmp
Scherer_2015_WIP	1	1	1	j	RightGun	SubsessionProc	1	2	1	ResponseMapping	f	3	2	1	3	RunProc	DoIntro	1	1	4	1	BlackGun	BlackGunProc	BlockProcList	44	1	1	BlackFace1.bmp	BlackFace2.bmp	3	2	143	f	0	1	547421	BlackFace1.bmp	fast	500	0		0	1	548123		0	0			0	-1	546420	1	f	0	1	547622	f	342	547964	BlackFace2.bmp	TrialProc	0	0	547822	ChunkList1	BlackBlack		
Scherer_2015_WIP	1	1	1	j	RightGun	SubsessionProc	1	2	1	ResponseMapping	f	3	2	1	3	RunProc	DoIntro	1	1	4	1	BlackGun	BlackGunProc	BlockProcList	45	5	1	BlackFace2.bmp	BlackFace3.bmp	3	2	144	f	0	1	549623	BlackFace2.bmp	fast	500	0		0	1	550325		0	0			0	-1	548622	1	f	0	1	549824	f	388	550212	BlackFace3.bmp	TrialProc	0	0	550024	ChunkList1	BlackBlack		
Scherer_2015_WIP	1	1	1	j	RightGun	SubsessionProc	1	2	1	ResponseMapping	f	3	2	1	3	RunProc	DoIntro	1	1	4	1	BlackGun	BlackGunProc	BlockProcList	46	8	1	BlackFace3.bmp	BlackFace2.bmp	3	2	145	f	0	0	551825	BlackFace3.bmp	fast	500	0		0	1	552527		0	0			0	0	550825	1	f	0	1	552026	f	378	552404	BlackFace2.bmp	TrialProc	0	0	552226	ChunkList1	BlackBlack		
Scherer_2015_WIP	1	1	1	j	RightGun	SubsessionProc	1	2	1	ResponseMapping	f	3	2	1	3	RunProc	DoIntro	1	1	4	1	BlackGun	BlackGunProc	BlockProcList	47	10	1	BlackFace4.bmp	BlackFace1.bmp	3	2	146	f	0	1	554028	BlackFace4.bmp	fast	500	0		0	1	554729		0	0			0	0	553027	1	f	0	0	554228	f	384	554612	BlackFace1.bmp	TrialProc	0	0	554428	ChunkList1	BlackBlack		
Scherer_2015_WIP	1	1	1	j	RightGun	SubsessionProc	1	2	1	ResponseMapping	f	3	2	1	3	RunProc	DoIntro	1	1	4	1	BlackGun	BlackGunProc	BlockProcList	48		4			3	2	147	j	0	1	556230	whiteface3.bmp	fast	500	0		0	1	556931		0	0	4	WEAPON4.bmp	0	0	555229	1	j	0	0	556430	j	326	556756	WEAPON4.bmp	TrialProc	0	0	556630	ChunkList1	WhiteGun	3	whiteface3.bmp
Scherer_2015_WIP	1	1	1	j	RightGun	SubsessionProc	1	2	1	ResponseMapping	f	3	2	1	3	RunProc	DoIntro	1	1	4	1	BlackGun	BlackGunProc	BlockProcList	49	9	3	BlackFace3.bmp	BlackFace4.bmp	3	2	148	f	0	1	558432	whiteface4.bmp	fast	500	0		0	1	559133		0	0			0	0	557431	1	f	0	0	558632	f	412	559044	BlackFace4.bmp	TrialProc	0	0	558832	ChunkList1	WhiteBlack	4	whiteface4.bmp
Scherer_2015_WIP	1	1	1	j	RightGun	SubsessionProc	1	2	1	ResponseMapping	f	3	2	1	3	RunProc	DoIntro	1	1	4	1	BlackGun	BlackGunProc	BlockProcList	50		4			3	2	149	j	0	1	560634	whiteface1.bmp	fast	500	0		0	1	561335		0	0	1	WEAPON1.bmp	0	0	559633	1	j	0	0	560834	j	370	561204	WEAPON1.bmp	TrialProc	0	0	561034	ChunkList1	WhiteGun	1	whiteface1.bmp
Scherer_2015_WIP	1	1	1	j	RightGun	SubsessionProc	1	2	1	ResponseMapping	f	3	2	1	3	RunProc	DoIntro	1	1	4	1	BlackGun	BlackGunProc	BlockProcList	51	11	2	BlackFace4.bmp	BlackFace2.bmp	3	2	150	j	0	1	562836	BlackFace4.bmp	fast	500	0		0	1	563537		0	0	3	WEAPON3.bmp	0	0	561835	0	j	0	0	563036	f	384	563420	WEAPON3.bmp	TrialProc	0	0	563236	ChunkList1	BlackGun		
Scherer_2015_WIP	1	1	1	j	RightGun	SubsessionProc	1	2	1	ResponseMapping	f	3	2	1	3	RunProc	DoIntro	1	1	4	1	BlackGun	BlackGunProc	BlockProcList	52	12	1	BlackFace4.bmp	BlackFace3.bmp	3	2	151	f	0	1	565038	BlackFace4.bmp	fast	500	0		0	2	565740		0	0			0	0	564037	1	f	0	0	565238	f	358	565596	BlackFace3.bmp	TrialProc	0	0	565438	ChunkList1	BlackBlack		
Scherer_2015_WIP	1	1	1	j	RightGun	SubsessionProc	1	2	1	ResponseMapping	f	3	2	1	3	RunProc	DoIntro	1	1	4	1	BlackGun	BlackGunProc	BlockProcList	53	5	1	BlackFace2.bmp	BlackFace3.bmp	3	2	152	f	0	1	567240	BlackFace2.bmp	fast	500	0		0	1	567941		0	0			0	-1	566239	1	f	0	0	567440	f	372	567812	BlackFace3.bmp	TrialProc	0	0	567640	ChunkList1	BlackBlack		
Scherer_2015_WIP	1	1	1	j	RightGun	SubsessionProc	1	2	1	ResponseMapping	f	3	2	1	3	RunProc	DoIntro	1	1	4	1	BlackGun	BlackGunProc	BlockProcList	54	11	2	BlackFace4.bmp	BlackFace2.bmp	3	2	153	j	0	1	569442	BlackFace4.bmp	fast	500	0		0	1	570143		0	0	2	WEAPON2.bmp	0	0	568441	1	j	0	0	569642	j	362	570004	WEAPON2.bmp	TrialProc	0	0	569842	ChunkList1	BlackGun		
Scherer_2015_WIP	1	1	1	j	RightGun	SubsessionProc	1	2	1	ResponseMapping	f	3	2	1	3	RunProc	DoIntro	1	1	4	1	BlackGun	BlackGunProc	BlockProcList	55	1	1	BlackFace1.bmp	BlackFace2.bmp	3	2	154	f	0	1	571644	BlackFace1.bmp	fast	500	0		0	1	572345		0	0			0	0	570643	1	f	0	0	571844	f	384	572228	BlackFace2.bmp	TrialProc	0	0	572044	ChunkList1	BlackBlack		
Scherer_2015_WIP	1	1	1	j	RightGun	SubsessionProc	1	2	1	ResponseMapping	f	3	2	1	3	RunProc	DoIntro	1	1	4	1	BlackGun	BlackGunProc	BlockProcList	56	6	3	BlackFace2.bmp	BlackFace4.bmp	3	2	155	f	0	1	573846	whiteface1.bmp	fast	500	0		0	1	574547		0	0			0	0	572845	1	f	0	0	574046	f	374	574420	BlackFace4.bmp	TrialProc	0	0	574246	ChunkList1	WhiteBlack	1	whiteface1.bmp
Scherer_2015_WIP	1	1	1	j	RightGun	SubsessionProc	1	2	1	ResponseMapping	f	3	2	1	3	RunProc	DoIntro	1	1	4	1	BlackGun	BlackGunProc	BlockProcList	57	4	3	BlackFace2.bmp	BlackFace1.bmp	3	2	156	f	0	1	576048	whiteface4.bmp	fast	500	0		0	1	576750		0	0			0	0	575047	1	f	0	0	576248	f	356	576604	BlackFace1.bmp	TrialProc	0	1	576449	ChunkList1	WhiteBlack	4	whiteface4.bmp
Scherer_2015_WIP	1	1	1	j	RightGun	SubsessionProc	1	2	1	ResponseMapping	f	3	2	1	3	RunProc	DoIntro	1	1	4	1	BlackGun	BlackGunProc	BlockProcList	58	8	3	BlackFace3.bmp	BlackFace2.bmp	3	2	157	f	0	1	578250	whiteface3.bmp	fast	500	0		0	1	578952		0	0			0	-1	577249	1	f	0	0	578450	f	402	578852	BlackFace2.bmp	TrialProc	0	1	578651	ChunkList1	WhiteBlack	3	whiteface3.bmp
Scherer_2015_WIP	1	1	1	j	RightGun	SubsessionProc	1	2	1	ResponseMapping	f	3	2	1	3	RunProc	DoIntro	1	1	4	1	BlackGun	BlackGunProc	BlockProcList	59	2	1	BlackFace1.bmp	BlackFace3.bmp	3	2	158	f	0	1	580452	BlackFace1.bmp	fast	500	0		0	1	581154		0	0			0	-1	579451	1	f	0	1	580653	f	375	581028	BlackFace3.bmp	TrialProc	0	0	580853	ChunkList1	BlackBlack		
Scherer_2015_WIP	1	1	1	j	RightGun	SubsessionProc	1	2	1	ResponseMapping	f	3	2	1	3	RunProc	DoIntro	1	1	4	1	BlackGun	BlackGunProc	BlockProcList	60		4			3	2	159	j	0	1	582654	whiteface2.bmp	fast	500	0		0	1	583356		0	0	4	WEAPON4.bmp	0	-1	581653	1	j	0	1	582855	j	373	583228	WEAPON4.bmp	TrialProc	0	0	583055	ChunkList1	WhiteGun	2	whiteface2.bmp
Scherer_2015_WIP	1	1	1	j	RightGun	SubsessionProc	1	2	1	ResponseMapping	f	3	2	1	3	RunProc	DoIntro	1	1	4	1	BlackGun	BlackGunProc	BlockProcList	61	10	1	BlackFace4.bmp	BlackFace1.bmp	3	2	160	f	0	1	584856	BlackFace4.bmp	fast	500	0		0	1	585558		0	0			0	-1	583855	1	f	0	1	585057	f	371	585428	BlackFace1.bmp	TrialProc	0	0	585257	ChunkList1	BlackBlack		
Scherer_2015_WIP	1	1	1	j	RightGun	SubsessionProc	1	2	1	ResponseMapping	f	3	2	1	3	RunProc	DoIntro	1	1	4	1	BlackGun	BlackGunProc	BlockProcList	62		4			3	2	161	j	0	1	587059	whiteface2.bmp	fast	500	0		0	1	587760		0	0	1	WEAPON1.bmp	0	0	586058	1	j	0	0	587259	j	377	587636	WEAPON1.bmp	TrialProc	0	0	587459	ChunkList1	WhiteGun	2	whiteface2.bmp
Scherer_2015_WIP	1	1	1	j	RightGun	SubsessionProc	1	2	1	ResponseMapping	f	3	2	1	3	RunProc	DoIntro	1	1	4	1	BlackGun	BlackGunProc	BlockProcList	63		4			3	2	162	j	0	1	589261	whiteface1.bmp	fast	500	0		0	1	589962		0	0	2	WEAPON2.bmp	0	0	588260	1	j	0	0	589461	j	359	589820	WEAPON2.bmp	TrialProc	0	0	589661	ChunkList1	WhiteGun	1	whiteface1.bmp
Scherer_2015_WIP	1	1	1	j	RightGun	SubsessionProc	1	2	1	ResponseMapping	f	3	2	1	3	RunProc	DoIntro	1	1	4	1	BlackGun	BlackGunProc	BlockProcList	64	9	3	BlackFace3.bmp	BlackFace4.bmp	3	2	163	f	0	1	591463	whiteface4.bmp	fast	500	0		0	1	592164		0	0			0	0	590462	1	f	0	0	591663	f	333	591996	BlackFace4.bmp	TrialProc	0	0	591863	ChunkList1	WhiteBlack	4	whiteface4.bmp
Scherer_2015_WIP	1	1	1	j	RightGun	SubsessionProc	1	2	1	ResponseMapping	f	3	2	1	3	RunProc	DoIntro	1	1	4	1	BlackGun	BlackGunProc	BlockProcList	65	3	3	BlackFace1.bmp	BlackFace4.bmp	3	2	164	f	0	1	593665	whiteface3.bmp	fast	500	0		0	1	594366		0	0			0	0	592664	1	f	0	0	593865	f	355	594220	BlackFace4.bmp	TrialProc	0	0	594065	ChunkList1	WhiteBlack	3	whiteface3.bmp
Scherer_2015_WIP	1	1	1	j	RightGun	SubsessionProc	1	2	1	ResponseMapping	f	3	2	1	3	RunProc	DoIntro	1	1	4	1	BlackGun	BlackGunProc	BlockProcList	66					4	2	165																														BreakTime				ChunkList1			
Scherer_2015_WIP	1	1	1	j	RightGun	SubsessionProc	1	2	1	ResponseMapping	f	3	2	1	3	RunProc	DoIntro	1	1	4	1	BlackGun	BlackGunProc	BlockProcList	67	7	2	BlackFace3.bmp	BlackFace1.bmp	5	2	166	j	0	1	603924	BlackFace3.bmp	fast	500	0		0	1	604626		0	0	3	WEAPON3.bmp	0	7	602923	1	j	0	1	604125	j	455	604580	WEAPON3.bmp	TrialProc	0	0	604325	ChunkList1	BlackGun		
Scherer_2015_WIP	1	1	1	j	RightGun	SubsessionProc	1	2	1	ResponseMapping	f	3	2	1	3	RunProc	DoIntro	1	1	4	1	BlackGun	BlackGunProc	BlockProcList	68	6	1	BlackFace2.bmp	BlackFace4.bmp	5	2	167	f	0	1	606126	BlackFace2.bmp	fast	500	0		0	1	606828		0	0			0	-1	605125	1	f	0	1	606327	f	317	606644	BlackFace4.bmp	TrialProc	0	0	606527	ChunkList1	BlackBlack		
Scherer_2015_WIP	1	1	1	j	RightGun	SubsessionProc	1	2	1	ResponseMapping	f	3	2	1	3	RunProc	DoIntro	1	1	4	1	BlackGun	BlackGunProc	BlockProcList	69	7	2	BlackFace3.bmp	BlackFace1.bmp	5	2	168	j	0	0	608328	BlackFace3.bmp	fast	500	0		0	1	609030		0	0	3	WEAPON3.bmp	0	0	607328	1	j	0	1	608529	j	395	608924	WEAPON3.bmp	TrialProc	0	0	608729	ChunkList1	BlackGun		
Scherer_2015_WIP	1	1	1	j	RightGun	SubsessionProc	1	2	1	ResponseMapping	f	3	2	1	3	RunProc	DoIntro	1	1	4	1	BlackGun	BlackGunProc	BlockProcList	70	12	2	BlackFace4.bmp	BlackFace3.bmp	5	2	169	j	0	1	610531	BlackFace4.bmp	fast	500	0		0	1	611232		0	0	2	WEAPON2.bmp	0	0	609530	1	j	0	0	610731	j	417	611148	WEAPON2.bmp	TrialProc	0	0	610931	ChunkList1	BlackGun		
Scherer_2015_WIP	1	1	1	j	RightGun	SubsessionProc	1	2	1	ResponseMapping	f	3	2	1	3	RunProc	DoIntro	1	1	4	1	BlackGun	BlackGunProc	BlockProcList	71	10	2	BlackFace4.bmp	BlackFace1.bmp	5	2	170	j	0	1	612733	BlackFace4.bmp	fast	500	0		0	1	613434		0	0	1	WEAPON1.bmp	0	0	611732	1	j	0	0	612933	j	375	613308	WEAPON1.bmp	TrialProc	0	0	613133	ChunkList1	BlackGun		
Scherer_2015_WIP	1	1	1	j	RightGun	SubsessionProc	1	2	1	ResponseMapping	f	3	2	1	3	RunProc	DoIntro	1	1	4	1	BlackGun	BlackGunProc	BlockProcList	72	2	1	BlackFace1.bmp	BlackFace3.bmp	5	2	171	f	0	1	614935	BlackFace1.bmp	fast	500	0		0	1	615636		0	0			0	0	613934	1	f	0	0	615135	f	349	615484	BlackFace3.bmp	TrialProc	0	0	615335	ChunkList1	BlackBlack		
Scherer_2015_WIP	1	1	1	j	RightGun	SubsessionProc	1	2	1	ResponseMapping	f	3	2	1	3	RunProc	DoIntro	1	1	4	1	BlackGun	BlackGunProc	BlockProcList	73	5	3	BlackFace2.bmp	BlackFace3.bmp	5	2	172	f	0	1	617137	whiteface2.bmp	fast	500	0		0	1	617838		0	0			0	0	616136	1	f	0	0	617337	f	387	617724	BlackFace3.bmp	TrialProc	0	0	617537	ChunkList1	WhiteBlack	2	whiteface2.bmp
Scherer_2015_WIP	1	1	1	j	RightGun	SubsessionProc	1	2	1	ResponseMapping	f	3	2	1	3	RunProc	DoIntro	1	1	4	1	BlackGun	BlackGunProc	BlockProcList	74	4	3	BlackFace2.bmp	BlackFace1.bmp	5	2	173	f	0	1	619339	whiteface4.bmp	fast	500	0		0	1	620040		0	0			0	0	618338	1	f	0	0	619539	f	433	619972	BlackFace1.bmp	TrialProc	0	0	619739	ChunkList1	WhiteBlack	4	whiteface4.bmp
Scherer_2015_WIP	1	1	1	j	RightGun	SubsessionProc	1	2	1	ResponseMapping	f	3	2	1	3	RunProc	DoIntro	1	1	4	1	BlackGun	BlackGunProc	BlockProcList	75	3	1	BlackFace1.bmp	BlackFace4.bmp	5	2	174	f	0	1	621541	BlackFace1.bmp	fast	500	0		0	1	622242		0	0			0	0	620540	1	f	0	0	621741	f	343	622084	BlackFace4.bmp	TrialProc	0	0	621941	ChunkList1	BlackBlack		
Scherer_2015_WIP	1	1	1	j	RightGun	SubsessionProc	1	2	1	ResponseMapping	f	3	2	1	3	RunProc	DoIntro	1	1	4	1	BlackGun	BlackGunProc	BlockProcList	76	11	2	BlackFace4.bmp	BlackFace2.bmp	5	2	175	j	0	1	623743	BlackFace4.bmp	fast	500	0		0	1	624444		0	0	4	WEAPON4.bmp	0	0	622742	1	j	0	0	623943	j	309	624252	WEAPON4.bmp	TrialProc	0	0	624143	ChunkList1	BlackGun		
Scherer_2015_WIP	1	1	1	j	RightGun	SubsessionProc	1	2	1	ResponseMapping	f	3	2	1	3	RunProc	DoIntro	1	1	4	1	BlackGun	BlackGunProc	BlockProcList	77		4			5	2	176	j	0	1	625945	whiteface1.bmp	fast	500	0		0	1	626646		0	0	2	WEAPON2.bmp	0	0	624944	0	j	0	0	626145	f	331	626476	WEAPON2.bmp	TrialProc	0	0	626345	ChunkList1	WhiteGun	1	whiteface1.bmp
Scherer_2015_WIP	1	1	1	j	RightGun	SubsessionProc	1	2	1	ResponseMapping	f	3	2	1	3	RunProc	DoIntro	1	1	4	1	BlackGun	BlackGunProc	BlockProcList	78		4			5	2	177	j	0	1	628147	whiteface3.bmp	fast	500	0		0	1	628848		0	0	1	WEAPON1.bmp	0	0	627146	1	j	0	0	628347	j	297	628644	WEAPON1.bmp	TrialProc	0	0	628547	ChunkList1	WhiteGun	3	whiteface3.bmp
Scherer_2015_WIP	1	1	1	j	RightGun	SubsessionProc	1	2	1	ResponseMapping	f	3	2	1	3	RunProc	DoIntro	1	1	4	1	BlackGun	BlackGunProc	BlockProcList	79	1	1	BlackFace1.bmp	BlackFace2.bmp	5	2	178	f	0	1	630349	BlackFace1.bmp	fast	500	0		0	1	631050		0	0			0	0	629348	1	f	0	0	630549	f	327	630876	BlackFace2.bmp	TrialProc	0	0	630749	ChunkList1	BlackBlack		
Scherer_2015_WIP	1	1	1	j	RightGun	SubsessionProc	1	2	1	ResponseMapping	f	3	2	1	3	RunProc	DoIntro	1	1	4	1	BlackGun	BlackGunProc	BlockProcList	80	9	3	BlackFace3.bmp	BlackFace4.bmp	5	2	179	f	0	1	632551	whiteface4.bmp	fast	500	0		0	1	633253		0	0			0	0	631550	1	f	0	0	632751	f	429	633180	BlackFace4.bmp	TrialProc	0	1	632952	ChunkList1	WhiteBlack	4	whiteface4.bmp
Scherer_2015_WIP	1	1	1	j	RightGun	SubsessionProc	1	2	1	ResponseMapping	f	3	2	1	3	RunProc	DoIntro	1	1	4	1	BlackGun	BlackGunProc	BlockProcList	81	8	2	BlackFace3.bmp	BlackFace2.bmp	5	2	180	j	0	1	634753	BlackFace3.bmp	fast	500	0		0	1	635455		0	0	4	WEAPON4.bmp	0	-1	633752	1	j	0	0	634953	j	387	635340	WEAPON4.bmp	TrialProc	0	1	635154	ChunkList1	BlackGun		
Scherer_2015_WIP	1	1	1	j	RightGun	SubsessionProc	1	2	1	ResponseMapping	f	3	2	1	3	RunProc	DoIntro	1	1	4	1	BlackGun	BlackGunProc	BlockProcList	82	4	1	BlackFace2.bmp	BlackFace1.bmp	5	2	181	f	0	1	636955	BlackFace2.bmp	fast	500	0		0	1	637657		0	0			0	-1	635954	1	f	0	0	637155	f	353	637508	BlackFace1.bmp	TrialProc	0	1	637356	ChunkList1	BlackBlack		
Scherer_2015_WIP	1	1	1	j	RightGun	SubsessionProc	1	2	1	ResponseMapping	f	3	2	1	3	RunProc	DoIntro	1	1	4	1	BlackGun	BlackGunProc	BlockProcList	83		4			5	2	182	j	0	1	639157	whiteface1.bmp	fast	500	0		0	1	639859		0	0	3	WEAPON3.bmp	0	-1	638156	1	j	0	1	639358	j	342	639700	WEAPON3.bmp	TrialProc	0	0	639558	ChunkList1	WhiteGun	1	whiteface1.bmp
Scherer_2015_WIP	1	1	1	j	RightGun	SubsessionProc	1	2	1	ResponseMapping	f	3	2	1	3	RunProc	DoIntro	1	1	4	1	BlackGun	BlackGunProc	BlockProcList	84	12	3	BlackFace4.bmp	BlackFace3.bmp	5	2	183	f	0	1	641359	whiteface3.bmp	fast	500	0		0	1	642061		0	0			0	-1	640358	1	f	0	1	641560	f	420	641980	BlackFace3.bmp	TrialProc	0	0	641760	ChunkList1	WhiteBlack	3	whiteface3.bmp
Scherer_2015_WIP	1	1	1	j	RightGun	SubsessionProc	1	2	1	ResponseMapping	f	3	2	1	3	RunProc	DoIntro	1	1	4	1	BlackGun	BlackGunProc	BlockProcList	85	9	3	BlackFace3.bmp	BlackFace4.bmp	5	2	184	f	0	0	643561	whiteface2.bmp	fast	500	0		0	1	644263		0	0			0	0	642561	1	f	0	1	643762	f	402	644164	BlackFace4.bmp	TrialProc	0	0	643962	ChunkList1	WhiteBlack	2	whiteface2.bmp
Scherer_2015_WIP	1	1	1	j	RightGun	SubsessionProc	1	2	1	ResponseMapping	f	3	2	1	3	RunProc	DoIntro	1	1	4	1	BlackGun	BlackGunProc	BlockProcList	86	7	3	BlackFace3.bmp	BlackFace1.bmp	5	2	185	f	0	1	645764	whiteface4.bmp	fast	500	0		0	1	646465		0	0			0	0	644763	1	f	0	0	645964	f	376	646340	BlackFace1.bmp	TrialProc	0	0	646164	ChunkList1	WhiteBlack	4	whiteface4.bmp
Scherer_2015_WIP	1	1	1	j	RightGun	SubsessionProc	1	2	1	ResponseMapping	f	3	2	1	3	RunProc	DoIntro	1	1	4	1	BlackGun	BlackGunProc	BlockProcList	87		4			5	2	186	j	0	1	647966	whiteface2.bmp	fast	500	0		0	1	648667		0	0	2	WEAPON2.bmp	0	0	646965	1	j	0	0	648166	j	342	648508	WEAPON2.bmp	TrialProc	0	0	648366	ChunkList1	WhiteGun	2	whiteface2.bmp
Scherer_2015_WIP	1	1	1	j	RightGun	SubsessionProc	1	2	1	ResponseMapping	f	3	2	1	3	RunProc	DoIntro	1	1	4	1	BlackGun	BlackGunProc	BlockProcList	88	2	2	BlackFace1.bmp	BlackFace3.bmp	5	2	187	j	0	1	650168	BlackFace1.bmp	fast	500	0		0	1	650869		0	0	3	WEAPON3.bmp	0	0	649167	1	j	0	0	650368	j	452	650820	WEAPON3.bmp	TrialProc	0	0	650568	ChunkList1	BlackGun		
Scherer_2015_WIP	1	1	1	j	RightGun	SubsessionProc	1	2	1	ResponseMapping	f	3	2	1	3	RunProc	DoIntro	1	1	4	1	BlackGun	BlackGunProc	BlockProcList	89		4			5	2	188	j	0	1	652370	whiteface3.bmp	fast	500	0		0	1	653071		0	0	1	WEAPON1.bmp	0	0	651369	1	j	0	0	652570	j	394	652964	WEAPON1.bmp	TrialProc	0	0	652770	ChunkList1	WhiteGun	3	whiteface3.bmp
Scherer_2015_WIP	1	1	1	j	RightGun	SubsessionProc	1	2	1	ResponseMapping	f	3	2	1	3	RunProc	DoIntro	1	1	4	1	BlackGun	BlackGunProc	BlockProcList	90	10	3	BlackFace4.bmp	BlackFace1.bmp	5	2	189	f	0	1	654572	whiteface1.bmp	fast	500	0		0	1	655273		0	0			0	0	653571	1	f	0	0	654772	f	432	655204	BlackFace1.bmp	TrialProc	0	0	654972	ChunkList1	WhiteBlack	1	whiteface1.bmp
Scherer_2015_WIP	1	1	1	j	RightGun	SubsessionProc	1	2	1	ResponseMapping	f	3	2	1	3	RunProc	DoIntro	1	1	4	1	BlackGun	BlackGunProc	BlockProcList	91	1	1	BlackFace1.bmp	BlackFace2.bmp	5	2	190	f	0	1	656774	BlackFace1.bmp	fast	500	0		0	1	657475		0	0			0	0	655773	1	f	0	0	656974	f	373	657347	BlackFace2.bmp	TrialProc	0	0	657174	ChunkList1	BlackBlack		
Scherer_2015_WIP	1	1	1	j	RightGun	SubsessionProc	1	2	1	ResponseMapping	f	3	2	1	3	RunProc	DoIntro	1	1	4	1	BlackGun	BlackGunProc	BlockProcList	92	5	3	BlackFace2.bmp	BlackFace3.bmp	5	2	191	f	0	1	658976	whiteface4.bmp	fast	500	0		0	1	659677		0	0			0	0	657975	1	f	0	0	659176	f	347	659523	BlackFace3.bmp	TrialProc	0	0	659376	ChunkList1	WhiteBlack	4	whiteface4.bmp
Scherer_2015_WIP	1	1	1	j	RightGun	SubsessionProc	1	2	1	ResponseMapping	f	3	2	1	3	RunProc	DoIntro	1	1	4	1	BlackGun	BlackGunProc	BlockProcList	93	8	2	BlackFace3.bmp	BlackFace2.bmp	5	2	192	j	0	1	661178	BlackFace3.bmp	fast	500	0		0	1	661879		0	0	4	WEAPON4.bmp	0	0	660177	1	j	0	0	661378	j	425	661803	WEAPON4.bmp	TrialProc	0	0	661578	ChunkList1	BlackGun		
Scherer_2015_WIP	1	1	1	j	RightGun	SubsessionProc	1	2	1	ResponseMapping	f	3	2	1	3	RunProc	DoIntro	1	1	4	1	BlackGun	BlackGunProc	BlockProcList	94	6	3	BlackFace2.bmp	BlackFace4.bmp	5	2	193	f	0	1	663380	whiteface2.bmp	fast	500	0		0	1	664081		0	0			0	0	662379	1	f	0	0	663580	f	311	663891	BlackFace4.bmp	TrialProc	0	0	663780	ChunkList1	WhiteBlack	2	whiteface2.bmp
Scherer_2015_WIP	1	1	1	j	RightGun	SubsessionProc	1	2	1	ResponseMapping	f	3	2	1	3	RunProc	DoIntro	1	1	4	1	BlackGun	BlackGunProc	BlockProcList	95		4			5	2	194	j	0	1	665582	whiteface3.bmp	fast	500	0		0	1	666284		0	0	2	WEAPON2.bmp	0	0	664581	1	j	0	0	665782	j	349	666131	WEAPON2.bmp	TrialProc	0	1	665983	ChunkList1	WhiteGun	3	whiteface3.bmp
Scherer_2015_WIP	1	1	1	j	RightGun	SubsessionProc	1	2	1	ResponseMapping	f	3	2	1	3	RunProc	DoIntro	1	1	4	1	BlackGun	BlackGunProc	BlockProcList	96	3	2	BlackFace1.bmp	BlackFace4.bmp	5	2	195	j	0	1	667784	BlackFace1.bmp	fast	500	0		0	1	668486		0	0	1	WEAPON1.bmp	0	-1	666783	1	j	0	0	667984	j	395	668379	WEAPON1.bmp	TrialProc	0	1	668185	ChunkList1	BlackGun		
Scherer_2015_WIP	1	1	1	j	RightGun	SubsessionProc	1	2	1	ResponseMapping	f	3	2	1	3	RunProc	DoIntro	1	1	4	1	BlackGun	BlackGunProc	BlockProcList	97	11	2	BlackFace4.bmp	BlackFace2.bmp	5	2	196	j	0	1	669986	BlackFace4.bmp	fast	500	0		0	1	670688		0	0	3	WEAPON3.bmp	0	-1	668985	0	j	0	0	670186	f	353	670539	WEAPON3.bmp	TrialProc	0	1	670387	ChunkList1	BlackGun		
Scherer_2015_WIP	1	1	1	j	RightGun	SubsessionProc	1	2	1	ResponseMapping	f	3	2	1	3	RunProc	DoIntro	1	1	4	1	BlackGun	BlackGunProc	BlockProcList	98		4			5	2	197	j	0	1	672188	whiteface1.bmp	fast	500	0		0	1	672890		0	0	4	WEAPON4.bmp	0	-1	671187	1	j	0	1	672389	j	326	672715	WEAPON4.bmp	TrialProc	0	0	672589	ChunkList1	WhiteGun	1	whiteface1.bmp
Scherer_2015_WIP	1	1	1	j	RightGun	SubsessionProc	1	2	1	ResponseMapping	f	3	2	1	3	RunProc	DoIntro	1	1	4	1	BlackGun	BlackGunProc	BlockProcList	99					6	2	198																														PrepProc				ChunkList1			
Scherer_2015_WIP	1	1	1	j	RightGun	SubsessionProc	1	2	1	ResponseMapping	f	4	2	1	4	RunProc	DoIntro	1	1	6	1	BlackGun	BlackGunProc	BlockProcList	1		4			1	3	199	j	0	-1	815022	whiteface2.bmp	fast	500	0		0	1	815724		0	0	3	WEAPON3.bmp	0	4	814023	1	j	0	0	815222	j	421	815643	WEAPON3.bmp	TrialProc	0	1	815423	ChunkList1	WhiteGun	2	whiteface2.bmp
Scherer_2015_WIP	1	1	1	j	RightGun	SubsessionProc	1	2	1	ResponseMapping	f	4	2	1	4	RunProc	DoIntro	1	1	6	1	BlackGun	BlackGunProc	BlockProcList	2		4			1	3	200	j	0	1	817224	whiteface4.bmp	fast	500	0		0	1	817926		0	0	2	WEAPON2.bmp	0	-1	816223	1	j	0	1	817425	j	402	817827	WEAPON2.bmp	TrialProc	0	0	817625	ChunkList1	WhiteGun	4	whiteface4.bmp
Scherer_2015_WIP	1	1	1	j	RightGun	SubsessionProc	1	2	1	ResponseMapping	f	4	2	1	4	RunProc	DoIntro	1	1	6	1	BlackGun	BlackGunProc	BlockProcList	3	6	1	BlackFace2.bmp	BlackFace4.bmp	1	3	201	f	0	1	819426	BlackFace2.bmp	fast	500	0		0	17	820144		0	0			0	-1	818425	1	f	0	1	819627	f	343	819970	BlackFace4.bmp	TrialProc	0	0	819827	ChunkList1	BlackBlack		
Scherer_2015_WIP	1	1	1	j	RightGun	SubsessionProc	1	2	1	ResponseMapping	f	4	2	1	4	RunProc	DoIntro	1	1	6	1	BlackGun	BlackGunProc	BlockProcList	4	8	3	BlackFace3.bmp	BlackFace2.bmp	1	3	202	f	0	1	821645	whiteface1.bmp	fast	500	0		0	1	822347		0	0			0	0	820644	1	f	0	0	821845	f	341	822186	BlackFace2.bmp	TrialProc	0	1	822046	ChunkList1	WhiteBlack	1	whiteface1.bmp
Scherer_2015_WIP	1	1	1	j	RightGun	SubsessionProc	1	2	1	ResponseMapping	f	4	2	1	4	RunProc	DoIntro	1	1	6	1	BlackGun	BlackGunProc	BlockProcList	5	4	3	BlackFace2.bmp	BlackFace1.bmp	1	3	203	f	0	1	823847	whiteface3.bmp	fast	500	0		0	1	824549		0	0			0	-1	822846	1	f	0	0	824047	f	403	824450	BlackFace1.bmp	TrialProc	0	1	824248	ChunkList1	WhiteBlack	3	whiteface3.bmp
Scherer_2015_WIP	1	1	1	j	RightGun	SubsessionProc	1	2	1	ResponseMapping	f	4	2	1	4	RunProc	DoIntro	1	1	6	1	BlackGun	BlackGunProc	BlockProcList	6	3	1	BlackFace1.bmp	BlackFace4.bmp	1	3	204	f	0	1	826049	BlackFace1.bmp	fast	500	0		0	1	826751		0	0			0	-1	825048	1	f	0	0	826249	f	353	826602	BlackFace4.bmp	TrialProc	0	1	826450	ChunkList1	BlackBlack		
Scherer_2015_WIP	1	1	1	j	RightGun	SubsessionProc	1	2	1	ResponseMapping	f	4	2	1	4	RunProc	DoIntro	1	1	6	1	BlackGun	BlackGunProc	BlockProcList	7	12	1	BlackFace4.bmp	BlackFace3.bmp	1	3	205	f	0	1	828251	BlackFace4.bmp	fast	500	0		0	1	828953		0	0			0	-1	827250	1	f	0	1	828452	f	342	828794	BlackFace3.bmp	TrialProc	0	0	828652	ChunkList1	BlackBlack		
Scherer_2015_WIP	1	1	1	j	RightGun	SubsessionProc	1	2	1	ResponseMapping	f	4	2	1	4	RunProc	DoIntro	1	1	6	1	BlackGun	BlackGunProc	BlockProcList	8	11	2	BlackFace4.bmp	BlackFace2.bmp	1	3	206	j	0	1	830453	BlackFace4.bmp	fast	500	0		0	1	831155		0	0	4	WEAPON4.bmp	0	-1	829452	1	j	0	1	830654	j	372	831026	WEAPON4.bmp	TrialProc	0	0	830854	ChunkList1	BlackGun		
Scherer_2015_WIP	1	1	1	j	RightGun	SubsessionProc	1	2	1	ResponseMapping	f	4	2	1	4	RunProc	DoIntro	1	1	6	1	BlackGun	BlackGunProc	BlockProcList	9		4			1	3	207	j	0	1	832656	whiteface2.bmp	fast	500	0		0	1	833357		0	0	1	WEAPON1.bmp	0	0	831655	1	j	0	0	832856	j	402	833258	WEAPON1.bmp	TrialProc	0	0	833056	ChunkList1	WhiteGun	2	whiteface2.bmp
Scherer_2015_WIP	1	1	1	j	RightGun	SubsessionProc	1	2	1	ResponseMapping	f	4	2	1	4	RunProc	DoIntro	1	1	6	1	BlackGun	BlackGunProc	BlockProcList	10		4			1	3	208	j	0	1	834858	whiteface3.bmp	fast	500	0		0	1	835559		0	0	3	WEAPON3.bmp	0	0	833857	1	j	0	0	835058	j	328	835386	WEAPON3.bmp	TrialProc	0	0	835258	ChunkList1	WhiteGun	3	whiteface3.bmp
Scherer_2015_WIP	1	1	1	j	RightGun	SubsessionProc	1	2	1	ResponseMapping	f	4	2	1	4	RunProc	DoIntro	1	1	6	1	BlackGun	BlackGunProc	BlockProcList	11	10	3	BlackFace4.bmp	BlackFace1.bmp	1	3	209	f	0	1	837060	whiteface1.bmp	fast	500	0		0	1	837761		0	0			0	0	836059	1	f	0	0	837260	f	358	837618	BlackFace1.bmp	TrialProc	0	0	837460	ChunkList1	WhiteBlack	1	whiteface1.bmp
Scherer_2015_WIP	1	1	1	j	RightGun	SubsessionProc	1	2	1	ResponseMapping	f	4	2	1	4	RunProc	DoIntro	1	1	6	1	BlackGun	BlackGunProc	BlockProcList	12	1	1	BlackFace1.bmp	BlackFace2.bmp	1	3	210	f	0	1	839262	BlackFace1.bmp	fast	500	0		0	1	839963		0	0			0	0	838261	1	f	0	0	839462	f	340	839802	BlackFace2.bmp	TrialProc	0	0	839662	ChunkList1	BlackBlack		
Scherer_2015_WIP	1	1	1	j	RightGun	SubsessionProc	1	2	1	ResponseMapping	f	4	2	1	4	RunProc	DoIntro	1	1	6	1	BlackGun	BlackGunProc	BlockProcList	13	5	2	BlackFace2.bmp	BlackFace3.bmp	1	3	211	j	0	1	841464	BlackFace2.bmp	fast	500	0		0	1	842165		0	0	2	WEAPON2.bmp	0	0	840463	1	j	0	0	841664	j	386	842050	WEAPON2.bmp	TrialProc	0	0	841864	ChunkList1	BlackGun		
Scherer_2015_WIP	1	1	1	j	RightGun	SubsessionProc	1	2	1	ResponseMapping	f	4	2	1	4	RunProc	DoIntro	1	1	6	1	BlackGun	BlackGunProc	BlockProcList	14	7	2	BlackFace3.bmp	BlackFace1.bmp	1	3	212	j	0	1	843666	BlackFace3.bmp	fast	500	0		0	1	844367		0	0	1	WEAPON1.bmp	0	0	842665	0	j	0	0	843866	f	304	844170	WEAPON1.bmp	TrialProc	0	0	844066	ChunkList1	BlackGun		
Scherer_2015_WIP	1	1	1	j	RightGun	SubsessionProc	1	2	1	ResponseMapping	f	4	2	1	4	RunProc	DoIntro	1	1	6	1	BlackGun	BlackGunProc	BlockProcList	15	9	1	BlackFace3.bmp	BlackFace4.bmp	1	3	213	f	0	1	845868	BlackFace3.bmp	fast	500	0		0	1	846569		0	0			0	0	844867	1	f	0	0	846068	f	342	846410	BlackFace4.bmp	TrialProc	0	0	846268	ChunkList1	BlackBlack		
Scherer_2015_WIP	1	1	1	j	RightGun	SubsessionProc	1	2	1	ResponseMapping	f	4	2	1	4	RunProc	DoIntro	1	1	6	1	BlackGun	BlackGunProc	BlockProcList	16	2	3	BlackFace1.bmp	BlackFace3.bmp	1	3	214	f	0	1	848070	whiteface4.bmp	fast	500	0		0	1	848771		0	0			0	0	847069	0	f	0	0	848270	j	308	848578	BlackFace3.bmp	TrialProc	0	0	848470	ChunkList1	WhiteBlack	4	whiteface4.bmp
Scherer_2015_WIP	1	1	1	j	RightGun	SubsessionProc	1	2	1	ResponseMapping	f	4	2	1	4	RunProc	DoIntro	1	1	6	1	BlackGun	BlackGunProc	BlockProcList	17		4			1	3	215	j	0	1	850272	whiteface4.bmp	fast	500	0		0	1	850973		0	0	4	WEAPON4.bmp	0	0	849271	0	j	0	0	850472	f	402	850874	WEAPON4.bmp	TrialProc	0	0	850672	ChunkList1	WhiteGun	4	whiteface4.bmp
Scherer_2015_WIP	1	1	1	j	RightGun	SubsessionProc	1	2	1	ResponseMapping	f	4	2	1	4	RunProc	DoIntro	1	1	6	1	BlackGun	BlackGunProc	BlockProcList	18	8	2	BlackFace3.bmp	BlackFace2.bmp	1	3	216	j	0	1	852474	BlackFace3.bmp	fast	500	0		0	1	853175		0	0	3	WEAPON3.bmp	0	0	851473	1	j	0	0	852674	j	440	853114	WEAPON3.bmp	TrialProc	0	0	852874	ChunkList1	BlackGun		
Scherer_2015_WIP	1	1	1	j	RightGun	SubsessionProc	1	2	1	ResponseMapping	f	4	2	1	4	RunProc	DoIntro	1	1	6	1	BlackGun	BlackGunProc	BlockProcList	19	12	2	BlackFace4.bmp	BlackFace3.bmp	1	3	217	j	0	1	854676	BlackFace4.bmp	fast	500	0		0	1	855378		0	0	1	WEAPON1.bmp	0	0	853675	1	j	0	0	854876	j	406	855282	WEAPON1.bmp	TrialProc	0	1	855077	ChunkList1	BlackGun		
Scherer_2015_WIP	1	1	1	j	RightGun	SubsessionProc	1	2	1	ResponseMapping	f	4	2	1	4	RunProc	DoIntro	1	1	6	1	BlackGun	BlackGunProc	BlockProcList	20		4			1	3	218	j	0	1	856878	whiteface3.bmp	fast	500	0		0	1	857580		0	0	2	WEAPON2.bmp	0	-1	855877	1	j	0	0	857078	j	356	857434	WEAPON2.bmp	TrialProc	0	1	857279	ChunkList1	WhiteGun	3	whiteface3.bmp
Scherer_2015_WIP	1	1	1	j	RightGun	SubsessionProc	1	2	1	ResponseMapping	f	4	2	1	4	RunProc	DoIntro	1	1	6	1	BlackGun	BlackGunProc	BlockProcList	21	5	1	BlackFace2.bmp	BlackFace3.bmp	1	3	219	f	0	1	859080	BlackFace2.bmp	fast	500	0		0	17	859798		0	0			0	-1	858079	1	f	0	0	859280	f	370	859650	BlackFace3.bmp	TrialProc	0	1	859481	ChunkList1	BlackBlack		
Scherer_2015_WIP	1	1	1	j	RightGun	SubsessionProc	1	2	1	ResponseMapping	f	4	2	1	4	RunProc	DoIntro	1	1	6	1	BlackGun	BlackGunProc	BlockProcList	22	4	2	BlackFace2.bmp	BlackFace1.bmp	1	3	220	j	0	1	861299	BlackFace2.bmp	fast	500	0		0	1	862000		0	0	4	WEAPON4.bmp	0	0	860298	1	j	0	0	861499	j	439	861938	WEAPON4.bmp	TrialProc	0	0	861699	ChunkList1	BlackGun		
Scherer_2015_WIP	1	1	1	j	RightGun	SubsessionProc	1	2	1	ResponseMapping	f	4	2	1	4	RunProc	DoIntro	1	1	6	1	BlackGun	BlackGunProc	BlockProcList	23	6	1	BlackFace2.bmp	BlackFace4.bmp	1	3	221	f	0	1	863501	BlackFace2.bmp	fast	500	0		0	1	864202		0	0			0	0	862500	1	f	0	0	863701	f	357	864058	BlackFace4.bmp	TrialProc	0	0	863901	ChunkList1	BlackBlack		
Scherer_2015_WIP	1	1	1	j	RightGun	SubsessionProc	1	2	1	ResponseMapping	f	4	2	1	4	RunProc	DoIntro	1	1	6	1	BlackGun	BlackGunProc	BlockProcList	24	11	2	BlackFace4.bmp	BlackFace2.bmp	1	3	222	j	0	1	865703	BlackFace4.bmp	fast	500	0		0	1	866405		0	0	3	WEAPON3.bmp	0	0	864702	1	j	0	0	865903	j	403	866306	WEAPON3.bmp	TrialProc	0	1	866104	ChunkList1	BlackGun		
Scherer_2015_WIP	1	1	1	j	RightGun	SubsessionProc	1	2	1	ResponseMapping	f	4	2	1	4	RunProc	DoIntro	1	1	6	1	BlackGun	BlackGunProc	BlockProcList	25	9	3	BlackFace3.bmp	BlackFace4.bmp	1	3	223	f	0	1	867905	whiteface1.bmp	fast	500	0		0	1	868607		0	0			0	-1	866904	1	f	0	0	868105	f	385	868490	BlackFace4.bmp	TrialProc	0	1	868306	ChunkList1	WhiteBlack	1	whiteface1.bmp
Scherer_2015_WIP	1	1	1	j	RightGun	SubsessionProc	1	2	1	ResponseMapping	f	4	2	1	4	RunProc	DoIntro	1	1	6	1	BlackGun	BlackGunProc	BlockProcList	26	7	2	BlackFace3.bmp	BlackFace1.bmp	1	3	224	j	0	1	870107	BlackFace3.bmp	fast	500	0		0	1	870809		0	0	4	WEAPON4.bmp	0	-1	869106	1	j	0	0	870307	j	375	870682	WEAPON4.bmp	TrialProc	0	1	870508	ChunkList1	BlackGun		
Scherer_2015_WIP	1	1	1	j	RightGun	SubsessionProc	1	2	1	ResponseMapping	f	4	2	1	4	RunProc	DoIntro	1	1	6	1	BlackGun	BlackGunProc	BlockProcList	27	3	3	BlackFace1.bmp	BlackFace4.bmp	1	3	225	f	0	1	872309	whiteface2.bmp	fast	500	0		0	1	873011		0	0			0	-1	871308	1	f	0	1	872510	f	452	872962	BlackFace4.bmp	TrialProc	0	0	872710	ChunkList1	WhiteBlack	2	whiteface2.bmp
Scherer_2015_WIP	1	1	1	j	RightGun	SubsessionProc	1	2	1	ResponseMapping	f	4	2	1	4	RunProc	DoIntro	1	1	6	1	BlackGun	BlackGunProc	BlockProcList	28	10	2	BlackFace4.bmp	BlackFace1.bmp	1	3	226	j	0	1	874511	BlackFace4.bmp	fast	500	0		0	1	875213		0	0	2	WEAPON2.bmp	0	-1	873510	1	j	0	1	874712	j	426	875138	WEAPON2.bmp	TrialProc	0	0	874912	ChunkList1	BlackGun		
Scherer_2015_WIP	1	1	1	j	RightGun	SubsessionProc	1	2	1	ResponseMapping	f	4	2	1	4	RunProc	DoIntro	1	1	6	1	BlackGun	BlackGunProc	BlockProcList	29	1	3	BlackFace1.bmp	BlackFace2.bmp	1	3	227	f	0	0	876713	whiteface1.bmp	fast	500	0		0	1	877415		0	0			0	0	875713	1	f	0	1	876914	f	392	877306	BlackFace2.bmp	TrialProc	0	0	877114	ChunkList1	WhiteBlack	1	whiteface1.bmp
Scherer_2015_WIP	1	1	1	j	RightGun	SubsessionProc	1	2	1	ResponseMapping	f	4	2	1	4	RunProc	DoIntro	1	1	6	1	BlackGun	BlackGunProc	BlockProcList	30	2	3	BlackFace1.bmp	BlackFace3.bmp	1	3	228	f	0	1	878916	whiteface2.bmp	fast	500	0		0	1	879617		0	0			0	0	877915	1	f	0	0	879116	f	390	879506	BlackFace3.bmp	TrialProc	0	0	879316	ChunkList1	WhiteBlack	2	whiteface2.bmp
Scherer_2015_WIP	1	1	1	j	RightGun	SubsessionProc	1	2	1	ResponseMapping	f	4	2	1	4	RunProc	DoIntro	1	1	6	1	BlackGun	BlackGunProc	BlockProcList	31	6	2	BlackFace2.bmp	BlackFace4.bmp	1	3	229	j	0	1	881118	BlackFace2.bmp	fast	500	0		0	1	881819		0	0	1	WEAPON1.bmp	0	0	880117	1	j	0	0	881318	j	396	881714	WEAPON1.bmp	TrialProc	0	0	881518	ChunkList1	BlackGun		
Scherer_2015_WIP	1	1	1	j	RightGun	SubsessionProc	1	2	1	ResponseMapping	f	4	2	1	4	RunProc	DoIntro	1	1	6	1	BlackGun	BlackGunProc	BlockProcList	32	2	1	BlackFace1.bmp	BlackFace3.bmp	1	3	230	f	0	1	883320	BlackFace1.bmp	fast	500	0		0	1	884021		0	0			0	0	882319	1	f	0	0	883520	f	330	883850	BlackFace3.bmp	TrialProc	0	0	883720	ChunkList1	BlackBlack		
Scherer_2015_WIP	1	1	1	j	RightGun	SubsessionProc	1	2	1	ResponseMapping	f	4	2	1	4	RunProc	DoIntro	1	1	6	1	BlackGun	BlackGunProc	BlockProcList	33					2	3	231																														BreakTime				ChunkList1			
Scherer_2015_WIP	1	1	1	j	RightGun	SubsessionProc	1	2	1	ResponseMapping	f	4	2	1	4	RunProc	DoIntro	1	1	6	1	BlackGun	BlackGunProc	BlockProcList	34	10	3	BlackFace4.bmp	BlackFace1.bmp	3	3	232	f	0	1	887807	whiteface3.bmp	fast	500	0		0	1	888509		0	0			0	12	886806	0	f	0	0	888007	j	403	888410	BlackFace1.bmp	TrialProc	0	1	888208	ChunkList1	WhiteBlack	3	whiteface3.bmp
Scherer_2015_WIP	1	1	1	j	RightGun	SubsessionProc	1	2	1	ResponseMapping	f	4	2	1	4	RunProc	DoIntro	1	1	6	1	BlackGun	BlackGunProc	BlockProcList	35	4	1	BlackFace2.bmp	BlackFace1.bmp	3	3	233	f	0	1	890009	BlackFace2.bmp	fast	500	0		0	1	890711		0	0			0	-1	889008	1	f	0	0	890209	f	337	890546	BlackFace1.bmp	TrialProc	0	1	890410	ChunkList1	BlackBlack		
Scherer_2015_WIP	1	1	1	j	RightGun	SubsessionProc	1	2	1	ResponseMapping	f	4	2	1	4	RunProc	DoIntro	1	1	6	1	BlackGun	BlackGunProc	BlockProcList	36	5	1	BlackFace2.bmp	BlackFace3.bmp	3	3	234	f	0	1	892211	BlackFace2.bmp	fast	500	0		0	1	892913		0	0			0	-1	891210	1	f	0	1	892412	f	334	892746	BlackFace3.bmp	TrialProc	0	0	892612	ChunkList1	BlackBlack		
Scherer_2015_WIP	1	1	1	j	RightGun	SubsessionProc	1	2	1	ResponseMapping	f	4	2	1	4	RunProc	DoIntro	1	1	6	1	BlackGun	BlackGunProc	BlockProcList	37	12	3	BlackFace4.bmp	BlackFace3.bmp	3	3	235	f	0	1	894413	whiteface4.bmp	fast	500	0		0	1	895115		0	0			0	-1	893412	1	f	0	1	894614	f	428	895042	BlackFace3.bmp	TrialProc	0	0	894814	ChunkList1	WhiteBlack	4	whiteface4.bmp
Scherer_2015_WIP	1	1	1	j	RightGun	SubsessionProc	1	2	1	ResponseMapping	f	4	2	1	4	RunProc	DoIntro	1	1	6	1	BlackGun	BlackGunProc	BlockProcList	38	3	3	BlackFace1.bmp	BlackFace4.bmp	3	3	236	f	0	0	896615	whiteface1.bmp	fast	500	0		0	1	897317		0	0			0	0	895615	1	f	0	1	896816	f	378	897194	BlackFace4.bmp	TrialProc	0	0	897016	ChunkList1	WhiteBlack	1	whiteface1.bmp
Scherer_2015_WIP	1	1	1	j	RightGun	SubsessionProc	1	2	1	ResponseMapping	f	4	2	1	4	RunProc	DoIntro	1	1	6	1	BlackGun	BlackGunProc	BlockProcList	39		4			3	3	237	j	0	1	898818	whiteface2.bmp	fast	500	0		0	1	899519		0	0	3	WEAPON3.bmp	0	0	897817	1	j	0	0	899018	j	376	899394	WEAPON3.bmp	TrialProc	0	0	899218	ChunkList1	WhiteGun	2	whiteface2.bmp
Scherer_2015_WIP	1	1	1	j	RightGun	SubsessionProc	1	2	1	ResponseMapping	f	4	2	1	4	RunProc	DoIntro	1	1	6	1	BlackGun	BlackGunProc	BlockProcList	40		4			3	3	238	j	0	1	901020	whiteface4.bmp	fast	500	0		0	1	901721		0	0	4	WEAPON4.bmp	0	0	900019	1	j	0	0	901220	j	430	901650	WEAPON4.bmp	TrialProc	0	0	901420	ChunkList1	WhiteGun	4	whiteface4.bmp
Scherer_2015_WIP	1	1	1	j	RightGun	SubsessionProc	1	2	1	ResponseMapping	f	4	2	1	4	RunProc	DoIntro	1	1	6	1	BlackGun	BlackGunProc	BlockProcList	41		4			3	3	239	j	0	1	903222	whiteface3.bmp	fast	500	0		0	1	903923		0	0	1	WEAPON1.bmp	0	0	902221	0	j	0	0	903422	f	396	903818	WEAPON1.bmp	TrialProc	0	0	903622	ChunkList1	WhiteGun	3	whiteface3.bmp
Scherer_2015_WIP	1	1	1	j	RightGun	SubsessionProc	1	2	1	ResponseMapping	f	4	2	1	4	RunProc	DoIntro	1	1	6	1	BlackGun	BlackGunProc	BlockProcList	42		4			3	3	240	j	0	1	905424	whiteface1.bmp	slow	1000	0		0	17	906141		0	0	2	WEAPON2.bmp	0	0	904423	0	j	0	0	905624	f	570	906194	WEAPON2.bmp	TrialProc	0	0	905824	ChunkList1	WhiteGun	1	whiteface1.bmp
Scherer_2015_WIP	1	1	1	j	RightGun	SubsessionProc	1	2	1	ResponseMapping	f	4	2	1	4	RunProc	DoIntro	1	1	6	1	BlackGun	BlackGunProc	BlockProcList	43		4			3	3	241	j	0	1	908143	whiteface2.bmp	fast	500	0		0	1	908844		0	0	2	WEAPON2.bmp	0	1	907142	1	j	0	0	908343	j	435	908778	WEAPON2.bmp	TrialProc	0	0	908543	ChunkList1	WhiteGun	2	whiteface2.bmp
Scherer_2015_WIP	1	1	1	j	RightGun	SubsessionProc	1	2	1	ResponseMapping	f	4	2	1	4	RunProc	DoIntro	1	1	6	1	BlackGun	BlackGunProc	BlockProcList	44	7	1	BlackFace3.bmp	BlackFace1.bmp	3	3	242	f	0	1	910345	BlackFace3.bmp	fast	500	0		0	1	911046		0	0			0	0	909344	1	f	0	0	910545	f	345	910890	BlackFace1.bmp	TrialProc	0	0	910745	ChunkList1	BlackBlack		
Scherer_2015_WIP	1	1	1	j	RightGun	SubsessionProc	1	2	1	ResponseMapping	f	4	2	1	4	RunProc	DoIntro	1	1	6	1	BlackGun	BlackGunProc	BlockProcList	45	9	1	BlackFace3.bmp	BlackFace4.bmp	3	3	243	f	0	1	912547	BlackFace3.bmp	fast	500	0		0	1	913248		0	0			0	0	911546	1	f	0	0	912747	f	327	913074	BlackFace4.bmp	TrialProc	0	0	912947	ChunkList1	BlackBlack		
Scherer_2015_WIP	1	1	1	j	RightGun	SubsessionProc	1	2	1	ResponseMapping	f	4	2	1	4	RunProc	DoIntro	1	1	6	1	BlackGun	BlackGunProc	BlockProcList	46	1	2	BlackFace1.bmp	BlackFace2.bmp	3	3	244	j	0	1	914749	BlackFace1.bmp	fast	500	0		0	1	915451		0	0	3	WEAPON3.bmp	0	0	913748	1	j	0	0	914949	j	349	915298	WEAPON3.bmp	TrialProc	0	1	915150	ChunkList1	BlackGun		
Scherer_2015_WIP	1	1	1	j	RightGun	SubsessionProc	1	2	1	ResponseMapping	f	4	2	1	4	RunProc	DoIntro	1	1	6	1	BlackGun	BlackGunProc	BlockProcList	47	8	3	BlackFace3.bmp	BlackFace2.bmp	3	3	245	f	0	1	916951	whiteface4.bmp	fast	500	0		0	1	917653		0	0			0	-1	915950	1	f	0	0	917151	f	339	917490	BlackFace2.bmp	TrialProc	0	1	917352	ChunkList1	WhiteBlack	4	whiteface4.bmp
Scherer_2015_WIP	1	1	1	j	RightGun	SubsessionProc	1	2	1	ResponseMapping	f	4	2	1	4	RunProc	DoIntro	1	1	6	1	BlackGun	BlackGunProc	BlockProcList	48	11	2	BlackFace4.bmp	BlackFace2.bmp	3	3	246	j	0	1	919153	BlackFace4.bmp	fast	500	0		0	1	919855		0	0	4	WEAPON4.bmp	0	-1	918152	1	j	0	0	919353	j	401	919754	WEAPON4.bmp	TrialProc	0	1	919554	ChunkList1	BlackGun		
Scherer_2015_WIP	1	1	1	j	RightGun	SubsessionProc	1	2	1	ResponseMapping	f	4	2	1	4	RunProc	DoIntro	1	1	6	1	BlackGun	BlackGunProc	BlockProcList	49	9	1	BlackFace3.bmp	BlackFace4.bmp	3	3	247	f	0	1	921355	BlackFace3.bmp	fast	500	0		0	1	922057		0	0			0	-1	920354	1	f	0	1	921556	f	374	921930	BlackFace4.bmp	TrialProc	0	0	921756	ChunkList1	BlackBlack		
Scherer_2015_WIP	1	1	1	j	RightGun	SubsessionProc	1	2	1	ResponseMapping	f	4	2	1	4	RunProc	DoIntro	1	1	6	1	BlackGun	BlackGunProc	BlockProcList	50		4			3	3	248	j	0	1	923557	whiteface3.bmp	fast	500	0		0	1	924259		0	0	1	WEAPON1.bmp	0	-1	922556	1	j	0	1	923758	j	388	924146	WEAPON1.bmp	TrialProc	0	0	923958	ChunkList1	WhiteGun	3	whiteface3.bmp
Scherer_2015_WIP	1	1	1	j	RightGun	SubsessionProc	1	2	1	ResponseMapping	f	4	2	1	4	RunProc	DoIntro	1	1	6	1	BlackGun	BlackGunProc	BlockProcList	51		4			3	3	249	j	0	0	925759	whiteface4.bmp	fast	500	0		0	1	926461		0	0	3	WEAPON3.bmp	0	0	924759	1	j	0	1	925960	j	426	926386	WEAPON3.bmp	TrialProc	0	0	926160	ChunkList1	WhiteGun	4	whiteface4.bmp
Scherer_2015_WIP	1	1	1	j	RightGun	SubsessionProc	1	2	1	ResponseMapping	f	4	2	1	4	RunProc	DoIntro	1	1	6	1	BlackGun	BlackGunProc	BlockProcList	52	5	2	BlackFace2.bmp	BlackFace3.bmp	3	3	250	j	0	1	927962	BlackFace2.bmp	fast	500	0		0	1	928663		0	0	4	WEAPON4.bmp	0	0	926961	1	j	0	0	928162	j	440	928602	WEAPON4.bmp	TrialProc	0	0	928362	ChunkList1	BlackGun		
Scherer_2015_WIP	1	1	1	j	RightGun	SubsessionProc	1	2	1	ResponseMapping	f	4	2	1	4	RunProc	DoIntro	1	1	6	1	BlackGun	BlackGunProc	BlockProcList	53	4	3	BlackFace2.bmp	BlackFace1.bmp	3	3	251	f	0	1	930164	whiteface2.bmp	fast	500	0		0	1	930865		0	0			0	0	929163	1	f	0	0	930364	f	382	930746	BlackFace1.bmp	TrialProc	0	0	930564	ChunkList1	WhiteBlack	2	whiteface2.bmp
Scherer_2015_WIP	1	1	1	j	RightGun	SubsessionProc	1	2	1	ResponseMapping	f	4	2	1	4	RunProc	DoIntro	1	1	6	1	BlackGun	BlackGunProc	BlockProcList	54	8	3	BlackFace3.bmp	BlackFace2.bmp	3	3	252	f	0	1	932366	whiteface3.bmp	fast	500	0		0	1	933067		0	0			0	0	931365	1	f	0	0	932566	f	316	932882	BlackFace2.bmp	TrialProc	0	0	932766	ChunkList1	WhiteBlack	3	whiteface3.bmp
Scherer_2015_WIP	1	1	1	j	RightGun	SubsessionProc	1	2	1	ResponseMapping	f	4	2	1	4	RunProc	DoIntro	1	1	6	1	BlackGun	BlackGunProc	BlockProcList	55		4			3	3	253	j	0	1	934568	whiteface1.bmp	fast	500	0		0	1	935269		0	0	2	WEAPON2.bmp	0	0	933567	1	j	0	0	934768	j	346	935114	WEAPON2.bmp	TrialProc	0	0	934968	ChunkList1	WhiteGun	1	whiteface1.bmp
Scherer_2015_WIP	1	1	1	j	RightGun	SubsessionProc	1	2	1	ResponseMapping	f	4	2	1	4	RunProc	DoIntro	1	1	6	1	BlackGun	BlackGunProc	BlockProcList	56	2	2	BlackFace1.bmp	BlackFace3.bmp	3	3	254	j	0	1	936770	BlackFace1.bmp	fast	500	0		0	1	937471		0	0	1	WEAPON1.bmp	0	0	935769	1	j	0	0	936970	j	440	937410	WEAPON1.bmp	TrialProc	0	0	937170	ChunkList1	BlackGun		
Scherer_2015_WIP	1	1	1	j	RightGun	SubsessionProc	1	2	1	ResponseMapping	f	4	2	1	4	RunProc	DoIntro	1	1	6	1	BlackGun	BlackGunProc	BlockProcList	57		4			3	3	255	j	0	1	938972	whiteface1.bmp	fast	500	0		0	1	939673		0	0	4	WEAPON4.bmp	0	0	937971	1	j	0	0	939172	j	414	939586	WEAPON4.bmp	TrialProc	0	0	939372	ChunkList1	WhiteGun	1	whiteface1.bmp
Scherer_2015_WIP	1	1	1	j	RightGun	SubsessionProc	1	2	1	ResponseMapping	f	4	2	1	4	RunProc	DoIntro	1	1	6	1	BlackGun	BlackGunProc	BlockProcList	58	1	3	BlackFace1.bmp	BlackFace2.bmp	3	3	256	f	0	1	941174	whiteface2.bmp	fast	500	0		0	1	941875		0	0			0	0	940173	1	f	0	0	941374	f	372	941746	BlackFace2.bmp	TrialProc	0	0	941574	ChunkList1	WhiteBlack	2	whiteface2.bmp
Scherer_2015_WIP	1	1	1	j	RightGun	SubsessionProc	1	2	1	ResponseMapping	f	4	2	1	4	RunProc	DoIntro	1	1	6	1	BlackGun	BlackGunProc	BlockProcList	59	12	3	BlackFace4.bmp	BlackFace3.bmp	3	3	257	f	0	1	943376	whiteface4.bmp	fast	500	0		0	1	944077		0	0			0	0	942375	1	f	0	0	943576	f	394	943970	BlackFace3.bmp	TrialProc	0	0	943776	ChunkList1	WhiteBlack	4	whiteface4.bmp
Scherer_2015_WIP	1	1	1	j	RightGun	SubsessionProc	1	2	1	ResponseMapping	f	4	2	1	4	RunProc	DoIntro	1	1	6	1	BlackGun	BlackGunProc	BlockProcList	60	7	1	BlackFace3.bmp	BlackFace1.bmp	3	3	258	f	0	1	945578	BlackFace3.bmp	fast	500	0		0	1	946279		0	0			0	0	944577	1	f	0	0	945778	f	400	946178	BlackFace1.bmp	TrialProc	0	0	945978	ChunkList1	BlackBlack		
Scherer_2015_WIP	1	1	1	j	RightGun	SubsessionProc	1	2	1	ResponseMapping	f	4	2	1	4	RunProc	DoIntro	1	1	6	1	BlackGun	BlackGunProc	BlockProcList	61		4			3	3	259	j	0	1	947780	whiteface3.bmp	fast	500	0		0	1	948482		0	0	1	WEAPON1.bmp	0	0	946779	1	j	0	0	947980	j	350	948330	WEAPON1.bmp	TrialProc	0	1	948181	ChunkList1	WhiteGun	3	whiteface3.bmp
Scherer_2015_WIP	1	1	1	j	RightGun	SubsessionProc	1	2	1	ResponseMapping	f	4	2	1	4	RunProc	DoIntro	1	1	6	1	BlackGun	BlackGunProc	BlockProcList	62	10	2	BlackFace4.bmp	BlackFace1.bmp	3	3	260	j	0	1	949982	BlackFace4.bmp	fast	500	0		0	1	950684		0	0	2	WEAPON2.bmp	0	-1	948981	1	j	0	0	950182	j	396	950578	WEAPON2.bmp	TrialProc	0	1	950383	ChunkList1	BlackGun		
Scherer_2015_WIP	1	1	1	j	RightGun	SubsessionProc	1	2	1	ResponseMapping	f	4	2	1	4	RunProc	DoIntro	1	1	6	1	BlackGun	BlackGunProc	BlockProcList	63	6	1	BlackFace2.bmp	BlackFace4.bmp	3	3	261	f	0	1	952184	BlackFace2.bmp	fast	500	0		0	1	952886		0	0			0	-1	951183	1	f	0	0	952384	f	362	952746	BlackFace4.bmp	TrialProc	0	1	952585	ChunkList1	BlackBlack		
Scherer_2015_WIP	1	1	1	j	RightGun	SubsessionProc	1	2	1	ResponseMapping	f	4	2	1	4	RunProc	DoIntro	1	1	6	1	BlackGun	BlackGunProc	BlockProcList	64	11	2	BlackFace4.bmp	BlackFace2.bmp	3	3	262	j	0	1	954386	BlackFace4.bmp	fast	500	0		0	1	955088		0	0	3	WEAPON3.bmp	0	-1	953385	1	j	0	1	954587	j	391	954978	WEAPON3.bmp	TrialProc	0	0	954787	ChunkList1	BlackGun		
Scherer_2015_WIP	1	1	1	j	RightGun	SubsessionProc	1	2	1	ResponseMapping	f	4	2	1	4	RunProc	DoIntro	1	1	6	1	BlackGun	BlackGunProc	BlockProcList	65	3	1	BlackFace1.bmp	BlackFace4.bmp	3	3	263	f	0	1	956588	BlackFace1.bmp	fast	500	0		0	1	957290		0	0			0	-1	955587	1	f	0	1	956789	f	357	957146	BlackFace4.bmp	TrialProc	0	0	956989	ChunkList1	BlackBlack		
Scherer_2015_WIP	1	1	1	j	RightGun	SubsessionProc	1	2	1	ResponseMapping	f	4	2	1	4	RunProc	DoIntro	1	1	6	1	BlackGun	BlackGunProc	BlockProcList	66					4	3	264																														BreakTime				ChunkList1			
Scherer_2015_WIP	1	1	1	j	RightGun	SubsessionProc	1	2	1	ResponseMapping	f	4	2	1	4	RunProc	DoIntro	1	1	6	1	BlackGun	BlackGunProc	BlockProcList	67	10	2	BlackFace4.bmp	BlackFace1.bmp	5	3	265	j	0	1	1006469	BlackFace4.bmp	fast	500	0		0	1	1007170		0	0	4	WEAPON4.bmp	0	11	1005468	1	j	0	0	1006669	j	420	1007089	WEAPON4.bmp	TrialProc	0	0	1006869	ChunkList1	BlackGun		
Scherer_2015_WIP	1	1	1	j	RightGun	SubsessionProc	1	2	1	ResponseMapping	f	4	2	1	4	RunProc	DoIntro	1	1	6	1	BlackGun	BlackGunProc	BlockProcList	68		4			5	3	266	j	0	1	1008671	whiteface4.bmp	fast	500	0		0	1	1009372		0	0	1	WEAPON1.bmp	0	0	1007670	0	j	0	0	1008871	f	354	1009225	WEAPON1.bmp	TrialProc	0	0	1009071	ChunkList1	WhiteGun	4	whiteface4.bmp
Scherer_2015_WIP	1	1	1	j	RightGun	SubsessionProc	1	2	1	ResponseMapping	f	4	2	1	4	RunProc	DoIntro	1	1	6	1	BlackGun	BlackGunProc	BlockProcList	69		4			5	3	267	j	0	1	1010873	whiteface3.bmp	fast	500	0		0	1	1011574		0	0	3	WEAPON3.bmp	0	0	1009872	1	j	0	0	1011073	j	368	1011441	WEAPON3.bmp	TrialProc	0	0	1011273	ChunkList1	WhiteGun	3	whiteface3.bmp
Scherer_2015_WIP	1	1	1	j	RightGun	SubsessionProc	1	2	1	ResponseMapping	f	4	2	1	4	RunProc	DoIntro	1	1	6	1	BlackGun	BlackGunProc	BlockProcList	70	9	1	BlackFace3.bmp	BlackFace4.bmp	5	3	268	f	0	1	1013075	BlackFace3.bmp	fast	500	0		0	1	1013776		0	0			0	0	1012074	1	f	0	0	1013275	f	342	1013617	BlackFace4.bmp	TrialProc	0	0	1013475	ChunkList1	BlackBlack		
Scherer_2015_WIP	1	1	1	j	RightGun	SubsessionProc	1	2	1	ResponseMapping	f	4	2	1	4	RunProc	DoIntro	1	1	6	1	BlackGun	BlackGunProc	BlockProcList	71	11	2	BlackFace4.bmp	BlackFace2.bmp	5	3	269	j	0	1	1015277	BlackFace4.bmp	fast	500	0		0	1	1015978		0	0	2	WEAPON2.bmp	0	0	1014276	1	j	0	0	1015477	j	340	1015817	WEAPON2.bmp	TrialProc	0	0	1015677	ChunkList1	BlackGun		
Scherer_2015_WIP	1	1	1	j	RightGun	SubsessionProc	1	2	1	ResponseMapping	f	4	2	1	4	RunProc	DoIntro	1	1	6	1	BlackGun	BlackGunProc	BlockProcList	72		4			5	3	270	j	0	1	1017479	whiteface1.bmp	fast	500	0		0	1	1018180		0	0	2	WEAPON2.bmp	0	0	1016478	1	j	0	0	1017679	j	346	1018025	WEAPON2.bmp	TrialProc	0	0	1017879	ChunkList1	WhiteGun	1	whiteface1.bmp
Scherer_2015_WIP	1	1	1	j	RightGun	SubsessionProc	1	2	1	ResponseMapping	f	4	2	1	4	RunProc	DoIntro	1	1	6	1	BlackGun	BlackGunProc	BlockProcList	73	8	1	BlackFace3.bmp	BlackFace2.bmp	5	3	271	f	0	1	1019681	BlackFace3.bmp	fast	500	0		0	1	1020382		0	0			0	0	1018680	1	f	0	0	1019881	f	392	1020273	BlackFace2.bmp	TrialProc	0	0	1020081	ChunkList1	BlackBlack		
Scherer_2015_WIP	1	1	1	j	RightGun	SubsessionProc	1	2	1	ResponseMapping	f	4	2	1	4	RunProc	DoIntro	1	1	6	1	BlackGun	BlackGunProc	BlockProcList	74	4	1	BlackFace2.bmp	BlackFace1.bmp	5	3	272	f	0	1	1021883	BlackFace2.bmp	fast	500	0		0	1	1022584		0	0			0	0	1020882	1	f	0	0	1022083	f	342	1022425	BlackFace1.bmp	TrialProc	0	0	1022283	ChunkList1	BlackBlack		
Scherer_2015_WIP	1	1	1	j	RightGun	SubsessionProc	1	2	1	ResponseMapping	f	4	2	1	4	RunProc	DoIntro	1	1	6	1	BlackGun	BlackGunProc	BlockProcList	75	7	3	BlackFace3.bmp	BlackFace1.bmp	5	3	273	f	0	1	1024085	whiteface2.bmp	fast	500	0		0	1	1024786		0	0			0	0	1023084	1	f	0	0	1024285	f	372	1024657	BlackFace1.bmp	TrialProc	0	0	1024485	ChunkList1	WhiteBlack	2	whiteface2.bmp
Scherer_2015_WIP	1	1	1	j	RightGun	SubsessionProc	1	2	1	ResponseMapping	f	4	2	1	4	RunProc	DoIntro	1	1	6	1	BlackGun	BlackGunProc	BlockProcList	76		4			5	3	274	j	0	1	1026287	whiteface1.bmp	fast	500	0		0	1	1026988		0	0	1	WEAPON1.bmp	0	0	1025286	1	j	0	0	1026487	j	458	1026945	WEAPON1.bmp	TrialProc	0	0	1026687	ChunkList1	WhiteGun	1	whiteface1.bmp
Scherer_2015_WIP	1	1	1	j	RightGun	SubsessionProc	1	2	1	ResponseMapping	f	4	2	1	4	RunProc	DoIntro	1	1	6	1	BlackGun	BlackGunProc	BlockProcList	77		4			5	3	275	j	0	1	1028489	whiteface3.bmp	fast	500	0		0	1	1029191		0	0	4	WEAPON4.bmp	0	0	1027488	0	j	0	0	1028689	f	416	1029105	WEAPON4.bmp	TrialProc	0	1	1028890	ChunkList1	WhiteGun	3	whiteface3.bmp
Scherer_2015_WIP	1	1	1	j	RightGun	SubsessionProc	1	2	1	ResponseMapping	f	4	2	1	4	RunProc	DoIntro	1	1	6	1	BlackGun	BlackGunProc	BlockProcList	78	2	2	BlackFace1.bmp	BlackFace3.bmp	5	3	276	j	0	1	1030691	BlackFace1.bmp	fast	500	0		0	1	1031393		0	0	3	WEAPON3.bmp	0	-1	1029690	1	j	0	0	1030891	j	406	1031297	WEAPON3.bmp	TrialProc	0	1	1031092	ChunkList1	BlackGun		
Scherer_2015_WIP	1	1	1	j	RightGun	SubsessionProc	1	2	1	ResponseMapping	f	4	2	1	4	RunProc	DoIntro	1	1	6	1	BlackGun	BlackGunProc	BlockProcList	79	6	2	BlackFace2.bmp	BlackFace4.bmp	5	3	277	j	0	1	1032893	BlackFace2.bmp	fast	500	0		0	1	1033595		0	0	4	WEAPON4.bmp	0	-1	1031892	1	j	0	0	1033093	j	460	1033553	WEAPON4.bmp	TrialProc	0	1	1033294	ChunkList1	BlackGun		
Scherer_2015_WIP	1	1	1	j	RightGun	SubsessionProc	1	2	1	ResponseMapping	f	4	2	1	4	RunProc	DoIntro	1	1	6	1	BlackGun	BlackGunProc	BlockProcList	80	12	3	BlackFace4.bmp	BlackFace3.bmp	5	3	278	f	0	1	1035095	whiteface4.bmp	fast	500	0		0	1	1035797		0	0			0	-1	1034094	1	f	0	1	1035296	f	417	1035713	BlackFace3.bmp	TrialProc	0	0	1035496	ChunkList1	WhiteBlack	4	whiteface4.bmp
Scherer_2015_WIP	1	1	1	j	RightGun	SubsessionProc	1	2	1	ResponseMapping	f	4	2	1	4	RunProc	DoIntro	1	1	6	1	BlackGun	BlackGunProc	BlockProcList	81		4			5	3	279	j	0	1	1037297	whiteface2.bmp	fast	500	0		0	1	1037999		0	0	1	WEAPON1.bmp	0	-1	1036296	1	j	0	1	1037498	j	391	1037889	WEAPON1.bmp	TrialProc	0	0	1037698	ChunkList1	WhiteGun	2	whiteface2.bmp
Scherer_2015_WIP	1	1	1	j	RightGun	SubsessionProc	1	2	1	ResponseMapping	f	4	2	1	4	RunProc	DoIntro	1	1	6	1	BlackGun	BlackGunProc	BlockProcList	82	5	1	BlackFace2.bmp	BlackFace3.bmp	5	3	280	f	0	0	1039499	BlackFace2.bmp	fast	500	0		0	1	1040201		0	0			0	0	1038499	1	f	0	1	1039700	f	341	1040041	BlackFace3.bmp	TrialProc	0	0	1039900	ChunkList1	BlackBlack		
Scherer_2015_WIP	1	1	1	j	RightGun	SubsessionProc	1	2	1	ResponseMapping	f	4	2	1	4	RunProc	DoIntro	1	1	6	1	BlackGun	BlackGunProc	BlockProcList	83	3	3	BlackFace1.bmp	BlackFace4.bmp	5	3	281	f	0	1	1041702	whiteface3.bmp	fast	500	0		0	1	1042403		0	0			0	0	1040701	1	f	0	0	1041902	f	371	1042273	BlackFace4.bmp	TrialProc	0	0	1042102	ChunkList1	WhiteBlack	3	whiteface3.bmp
Scherer_2015_WIP	1	1	1	j	RightGun	SubsessionProc	1	2	1	ResponseMapping	f	4	2	1	4	RunProc	DoIntro	1	1	6	1	BlackGun	BlackGunProc	BlockProcList	84		4			5	3	282	j	0	1	1043904	whiteface4.bmp	fast	500	0		0	1	1044605		0	0	2	WEAPON2.bmp	0	0	1042903	1	j	0	0	1044104	j	329	1044433	WEAPON2.bmp	TrialProc	0	0	1044304	ChunkList1	WhiteGun	4	whiteface4.bmp
Scherer_2015_WIP	1	1	1	j	RightGun	SubsessionProc	1	2	1	ResponseMapping	f	4	2	1	4	RunProc	DoIntro	1	1	6	1	BlackGun	BlackGunProc	BlockProcList	85	1	1	BlackFace1.bmp	BlackFace2.bmp	5	3	283	f	0	1	1046106	BlackFace1.bmp	fast	500	0		0	1	1046807		0	0			0	0	1045105	1	f	0	0	1046306	f	375	1046681	BlackFace2.bmp	TrialProc	0	0	1046506	ChunkList1	BlackBlack		
Scherer_2015_WIP	1	1	1	j	RightGun	SubsessionProc	1	2	1	ResponseMapping	f	4	2	1	4	RunProc	DoIntro	1	1	6	1	BlackGun	BlackGunProc	BlockProcList	86		4			5	3	284	j	0	1	1048308	whiteface1.bmp	fast	500	0		0	1	1049009		0	0	3	WEAPON3.bmp	0	0	1047307	1	j	0	0	1048508	j	389	1048897	WEAPON3.bmp	TrialProc	0	0	1048708	ChunkList1	WhiteGun	1	whiteface1.bmp
Scherer_2015_WIP	1	1	1	j	RightGun	SubsessionProc	1	2	1	ResponseMapping	f	4	2	1	4	RunProc	DoIntro	1	1	6	1	BlackGun	BlackGunProc	BlockProcList	87	1	1	BlackFace1.bmp	BlackFace2.bmp	5	3	285	f	0	1	1050510	BlackFace1.bmp	fast	500	0		0	1	1051211		0	0			0	0	1049509	1	f	0	0	1050710	f	363	1051073	BlackFace2.bmp	TrialProc	0	0	1050910	ChunkList1	BlackBlack		
Scherer_2015_WIP	1	1	1	j	RightGun	SubsessionProc	1	2	1	ResponseMapping	f	4	2	1	4	RunProc	DoIntro	1	1	6	1	BlackGun	BlackGunProc	BlockProcList	88	9	1	BlackFace3.bmp	BlackFace4.bmp	5	3	286	f	0	1	1052712	BlackFace3.bmp	fast	500	0		0	1	1053413		0	0			0	0	1051711	1	f	0	0	1052912	f	329	1053241	BlackFace4.bmp	TrialProc	0	0	1053112	ChunkList1	BlackBlack		
Scherer_2015_WIP	1	1	1	j	RightGun	SubsessionProc	1	2	1	ResponseMapping	f	4	2	1	4	RunProc	DoIntro	1	1	6	1	BlackGun	BlackGunProc	BlockProcList	89	5	1	BlackFace2.bmp	BlackFace3.bmp	5	3	287	f	0	1	1054914	BlackFace2.bmp	fast	500	0		0	2	1055616		0	0			0	0	1053913	1	f	0	0	1055114	f	311	1055425	BlackFace3.bmp	TrialProc	0	0	1055314	ChunkList1	BlackBlack		
Scherer_2015_WIP	1	1	1	j	RightGun	SubsessionProc	1	2	1	ResponseMapping	f	4	2	1	4	RunProc	DoIntro	1	1	6	1	BlackGun	BlackGunProc	BlockProcList	90	4	2	BlackFace2.bmp	BlackFace1.bmp	5	3	288	j	0	1	1057116	BlackFace2.bmp	fast	500	0		0	1	1057817		0	0	3	WEAPON3.bmp	0	-1	1056115	1	j	0	0	1057316	j	421	1057737	WEAPON3.bmp	TrialProc	0	0	1057516	ChunkList1	BlackGun		
